sender,sender_type,sender_id,timestamp,meta,,correct,correctResponse,duration,ended_on,img,max,mean,num1,num2,num3,num4,num5,response,response_action,std,time_commit,time_end,time_render,time_run,time_show,time_switch,url
Opening,html.Page,0,2020-11-29T20:15:18.912Z,"{""labjs_version"":""20.1.1"",""labjs_build"":{""flavor"":""production"",""commit"":""c48ac4ada3769e8d34489594ab03097d5f256ac7""},""location"":""file:///C:/Users/lab/Desktop/study-export/index.html"",""userAgent"":""Mozilla/5.0 (Windows NT 10.0; Win64; x64) AppleWebKit/537.36 (KHTML, like Gecko) Chrome/85.0.4183.102 Safari/537.36"",""platform"":""Win32"",""language"":""ja-JP"",""locale"":""ja"",""timeZone"":""Asia/Tokyo"",""timezoneOffset"":-540,""screen_width"":1368,""screen_height"":912,""scroll_width"":1368,""scroll_height"":778,""window_innerWidth"":1368,""window_innerHeight"":802,""devicePixelRatio"":2}",,,,18725.7880000084,form submission,,,,,,,,,,,,23055.715000024065,23054.8950000084,3662.044,3675.2700000070035,4329.107,23075.335,{}
Fixation Cross,canvas.Screen,1_0_0,2020-11-29T20:15:19.417Z,,,,,500.35699999999997,timeout,2.png,93,86.0,93,90,79,92,76,,,7.0710678118654755,23560.174999991432,23559.038,23042.003,23056.57999997493,23075.335,23575.692,
Stimulus Number,canvas.Screen,1_0_1,2020-11-29T20:15:20.898Z,,,true,93,1460.2780000262828,response,2.png,93,86.0,93,90,79,92,76,93,click @btnA,7.0710678118654755,25041.139999986626,25035.970000026282,23559.038,23560.699999972712,23575.692,25043.35,
Seq Number,flow.Sequence,1_0,2020-11-29T20:15:20.898Z,,,,,1960.6350000262828,completion,2.png,93,86.0,93,90,79,92,76,,,7.0710678118654755,25041.51000001002,25035.970000026282,23042.003,23056.50499998592,23075.335,25043.35,
Fixation Cross,canvas.Screen,1_1_0,2020-11-29T20:15:21.384Z,,,,,500.3760000000002,timeout,0.png,41,32.4,27,41,22,38,34,,,7.002856560004639,25528.01000000909,25527.105,25026.719,25041.71000001952,25043.35,25543.726,
Stimulus Number,canvas.Screen,1_1_1,2020-11-29T20:15:23.150Z,,,true,41,1746.9689999742222,response,0.png,41,32.4,27,41,22,38,34,41,click @btnB,7.002856560004639,27293.67500002263,27290.69499997422,25527.105,25528.295000025537,25543.726,27295.064,
Seq Number,flow.Sequence,1_1,2020-11-29T20:15:23.151Z,,,,,2247.3449999742224,completion,0.png,41,32.4,27,41,22,38,34,,,7.002856560004639,27294.519999995828,27290.69499997422,25026.719,25041.65999998804,25043.35,27295.064,
Fixation Cross,canvas.Screen,1_2_0,2020-11-29T20:15:23.636Z,,,,,500.19100000000253,timeout,6.png,76,63.6,72,76,65,46,59,,,10.556514576317317,27779.220000025816,27778.613,27278.223,27296.205000020564,27295.064,27795.255,
Stimulus Number,canvas.Screen,1_2_1,2020-11-29T20:15:25.127Z,,,true,76,1473.370000026076,response,6.png,76,63.6,72,76,65,46,59,76,click @btnB,10.556514576317317,29270.490000024438,29268.625000026077,27778.613,27779.529999999795,27795.255,29279.605,
Seq Number,flow.Sequence,1_2,2020-11-29T20:15:25.127Z,,,,,1973.5610000260785,completion,6.png,76,63.6,72,76,65,46,59,,,10.556514576317317,29271.034999983385,29268.625000026077,27278.223,27296.020000008866,27295.064,29279.605,
Fixation Cross,canvas.Screen,1_3_0,2020-11-29T20:15:25.621Z,,,,,500.70400000000154,timeout,8.png,25,10.0,13,6,25,4,2,,,8.366600265340756,29764.354999992065,29763.351,29262.962,29271.390000008978,29279.605,29780.309,
Stimulus Number,canvas.Screen,1_3_1,2020-11-29T20:15:26.831Z,,,true,25,1191.7409999821175,response,8.png,25,10.0,13,6,25,4,2,25,click @btnC,8.366600265340756,30974.820000003092,30972.04999998212,29763.351,29764.93499998469,29780.309,30980.821,
Seq Number,flow.Sequence,1_3,2020-11-29T20:15:26.832Z,,,,,1692.444999982119,completion,8.png,25,10.0,13,6,25,4,2,,,8.366600265340756,30975.534999975935,30972.04999998212,29262.962,29271.324999979697,29279.605,30980.821,
Fixation Cross,canvas.Screen,1_4_0,2020-11-29T20:15:27.321Z,,,,,500.29599999999846,timeout,7.png,85,77.6,79,73,85,77,74,,,4.2708313008125245,31464.964999991935,31464.451,30964.099,30975.994999986142,30980.821,31481.117,
Stimulus Number,canvas.Screen,1_4_1,2020-11-29T20:15:28.509Z,,,true,85,1169.6479999693984,response,7.png,85,77.6,79,73,85,77,74,85,click @btnC,4.2708313008125245,32652.46000001207,32650.764999969397,31464.451,31465.199999976903,31481.117,32665.258,
Seq Number,flow.Sequence,1_4,2020-11-29T20:15:28.509Z,,,,,1669.9439999693968,completion,7.png,85,77.6,79,73,85,77,74,,,4.2708313008125245,32652.8849999886,32650.764999969397,30964.099,30975.909999979194,30980.821,32665.258,
Fixation Cross,canvas.Screen,1_5_0,2020-11-29T20:15:29.006Z,,,,,500.40000000000146,timeout,1.png,104,92.2,95,84,104,82,96,,,8.158431221748456,33149.78500001598,33149.008,32648.575,32653.195000020787,32665.258,33165.658,
Stimulus Number,canvas.Screen,1_5_1,2020-11-29T20:15:30.211Z,,,true,104,1186.1270000061995,response,1.png,104,92.2,95,84,104,82,96,104,click @btnC,8.158431221748456,34354.415000008885,34351.7850000062,33149.008,33150.3500000108,33165.658,34366.492,
Seq Number,flow.Sequence,1_5,2020-11-29T20:15:30.211Z,,,,,1686.527000006201,completion,1.png,104,92.2,95,84,104,82,96,,,8.158431221748456,34354.76999997627,34351.7850000062,32648.575,32653.140000009444,32665.258,34366.492,
Fixation Cross,canvas.Screen,1_6_0,2020-11-29T20:15:30.707Z,,,,,500.30600000000413,timeout,5.png,35,19.6,17,19,27,0,35,,,11.689311356961968,34850.57000000961,34850.097,34349.82,34355.02499999711,34366.492,34866.798,
Stimulus Number,canvas.Screen,1_6_1,2020-11-29T20:15:31.864Z,,,true,35,1128.632000009944,response,5.png,35,19.6,17,19,27,0,35,35,click @btnE,11.689311356961968,36007.159999979194,35995.43000000995,34850.097,34850.82499997225,34866.798,36017.617,
Seq Number,flow.Sequence,1_6,2020-11-29T20:15:31.864Z,,,,,1628.9380000099482,completion,5.png,35,19.6,17,19,27,0,35,,,11.689311356961968,36007.609999971464,35995.43000000995,34349.82,34354.98000000371,34366.492,36017.617,
Fixation Cross,canvas.Screen,1_7_0,2020-11-29T20:15:32.358Z,,,,,500.2980000000025,timeout,3.png,75,45.6,56,28,27,75,42,,,18.11739495622922,36501.694999984466,36501.234,36000.958,36007.89499998791,36017.617,36517.915,
Stimulus Number,canvas.Screen,1_7_1,2020-11-29T20:15:33.373Z,,,true,75,996.4249999942622,response,3.png,75,45.6,56,28,27,75,42,75,click @btnD,18.11739495622922,37517.035000026226,37514.33999999426,36501.234,36501.93500000751,36517.915,37518.624,
Seq Number,flow.Sequence,1_7,2020-11-29T20:15:33.374Z,,,,,1496.7229999942647,completion,3.png,75,45.6,56,28,27,75,42,,,18.11739495622922,37517.63999997638,37514.33999999426,36000.958,36007.849999994505,36017.617,37518.624,
Fixation Cross,canvas.Screen,1_8_0,2020-11-29T20:15:33.859Z,,,,,500.34999999999854,timeout,9.png,73,64.2,71,69,73,55,53,,,8.44748483277715,38003.06499999715,38002.353,37501.978,37518.10500002466,37518.624,38018.974,
Stimulus Number,canvas.Screen,1_8_1,2020-11-29T20:15:35.195Z,,,true,73,1316.4359999996814,response,9.png,73,64.2,71,69,73,55,53,73,click @btnC,8.44748483277715,39338.11999997124,39335.40999999968,38002.353,38003.52500000736,38018.974,39353.221,
Seq Number,flow.Sequence,1_8,2020-11-29T20:15:35.195Z,,,,,1816.78599999968,completion,9.png,73,64.2,71,69,73,55,53,,,8.44748483277715,39338.7099999818,39335.40999999968,37501.978,37518.02499999758,37518.624,39353.221,
Fixation Cross,canvas.Screen,1_9_0,2020-11-29T20:15:35.694Z,,,,,500.3600000000006,timeout,4.png,58,42.2,24,58,51,32,46,,,12.464349160706305,39837.82999997493,39836.964,39336.639,39339.139999996405,39353.221,39853.581,
Stimulus Number,canvas.Screen,1_9_1,2020-11-29T20:15:37.277Z,,,true,58,1564.2239999754893,response,4.png,58,42.2,24,58,51,32,46,58,click @btnB,12.464349160706305,41420.395000022836,41417.80499997549,39836.964,39838.340000016615,39853.581,41504.794,
Seq Number,flow.Sequence,1_9,2020-11-29T20:15:37.277Z,,,,,2064.58399997549,completion,4.png,58,42.2,24,58,51,32,46,,,12.464349160706305,41420.745000010356,41417.80499997549,39336.639,39339.05499998946,39353.221,41504.794,
Loop Number,flow.Loop,1,2020-11-29T20:15:37.277Z,,,,,18342.46999997549,completion,,,,,,,,,,,,41421.09999997774,41417.80499997549,23042.003,23056.425000017043,23075.335,41504.794,
Interval,html.Page,2,2020-11-29T20:15:49.324Z,,,,,11962.25599997746,form submission,,,,,,,,,,,,53467.60999999242,53467.04999997746,41404.695,41421.870000020135,41504.794,53462.936,
Fixation Cross,canvas.Screen,3_0_0,2020-11-29T20:15:49.804Z,,,,,500.3220000000001,timeout,0.png,41,32.4,27,41,22,38,34,,,7.002856560004639,53947.38500000676,53946.655,53446.154,53468.15999998944,53462.936,53963.258,
Stimulus Graph,canvas.Screen,3_0_1,2020-11-29T20:15:51.042Z,,,true,41,1220.1119999842776,response,0.png,41,32.4,27,41,22,38,34,41,click @btnB,7.002856560004639,55185.93500001589,55183.36999998428,53946.655,53947.899999970105,53963.258,55197.614,
Seq Graph,flow.Sequence,3_0,2020-11-29T20:15:51.043Z,,,,,1720.4339999842778,completion,0.png,41,32.4,27,41,22,38,34,,,7.002856560004639,55186.470000015106,55183.36999998428,53446.154,53468.08500000043,53462.936,55197.614,
Fixation Cross,canvas.Screen,3_1_0,2020-11-29T20:15:51.538Z,,,,,500.2430000000022,timeout,1.png,104,92.2,95,84,104,82,96,,,8.158431221748456,55682.03000002541,55681.178,55180.764,55186.76000001142,55197.614,55697.857,
Stimulus Graph,canvas.Screen,3_1_1,2020-11-29T20:15:52.671Z,,,true,104,1114.263000016872,response,1.png,104,92.2,95,84,104,82,96,104,click @btnC,8.158431221748456,56815.070000011474,56812.120000016876,55681.178,55682.55500000669,55697.857,56815.251,
Seq Graph,flow.Sequence,3_1,2020-11-29T20:15:52.672Z,,,,,1614.5060000168742,completion,1.png,104,92.2,95,84,104,82,96,,,8.158431221748456,56815.969999996014,56812.120000016876,55180.764,55186.705000000075,55197.614,56815.251,
Fixation Cross,canvas.Screen,3_2_0,2020-11-29T20:15:53.156Z,,,,,500.33600000000297,timeout,7.png,85,77.6,79,73,85,77,74,,,4.2708313008125245,57299.8249999946,57298.955,56798.596,56816.40000001062,56815.251,57315.587,
Stimulus Graph,canvas.Screen,3_2_1,2020-11-29T20:15:54.155Z,,,true,85,980.6729999736999,response,7.png,85,77.6,79,73,85,77,74,85,click @btnC,4.2708313008125245,58298.544999968726,58296.2599999737,57298.955,57300.37999997148,57315.587,58299.618,
Seq Graph,flow.Sequence,3_2,2020-11-29T20:15:54.155Z,,,,,1481.0089999737029,completion,7.png,85,77.6,79,73,85,77,74,,,4.2708313008125245,58298.869999998715,58296.2599999737,56798.596,56816.32500002161,56815.251,58299.618,
Fixation Cross,canvas.Screen,3_3_0,2020-11-29T20:15:54.640Z,,,,,500.3489999999947,timeout,6.png,76,63.6,72,76,65,46,59,,,10.556514576317317,58784.05000001658,58783.311,58282.975,58299.09500002395,58299.618,58799.967,
Stimulus Graph,canvas.Screen,3_3_1,2020-11-29T20:15:55.466Z,,,true,76,807.768000026881,response,6.png,76,63.6,72,76,65,46,59,76,click @btnB,10.556514576317317,59610.08499999298,59607.73500002688,58783.311,58784.6150000114,58799.967,59617.176,
Seq Graph,flow.Sequence,3_3,2020-11-29T20:15:55.467Z,,,,,1308.1170000268758,completion,6.png,76,63.6,72,76,65,46,59,,,10.556514576317317,59610.60499999439,59607.73500002688,58282.975,58299.04999997234,58299.618,59617.176,
Fixation Cross,canvas.Screen,3_4_0,2020-11-29T20:15:55.958Z,,,,,500.33699999999953,timeout,2.png,93,86.0,93,90,79,92,76,,,7.0710678118654755,60101.62999999011,60100.914,59600.536,59610.98499997752,59617.176,60117.513,
Stimulus Graph,canvas.Screen,3_4_1,2020-11-29T20:15:57.506Z,,,false,93,1528.9620000159266,response,2.png,93,86.0,93,90,79,92,76,92,click @btnD,7.0710678118654755,61649.49500001967,61646.475000015926,60100.914,60102.09499998018,60117.513,61651.938,
Seq Graph,flow.Sequence,3_4,2020-11-29T20:15:57.507Z,,,,,2029.2990000159261,completion,2.png,93,86.0,93,90,79,92,76,,,7.0710678118654755,61650.07999999216,61646.475000015926,59600.536,59610.91500002658,59617.176,61651.938,
Fixation Cross,canvas.Screen,3_5_0,2020-11-29T20:15:57.993Z,,,,,500.34599999999773,timeout,8.png,25,10.0,13,6,25,4,2,,,8.366600265340756,62136.50999998208,62135.645,61635.598,61650.52500000456,61651.938,62152.284,
Stimulus Graph,canvas.Screen,3_5_1,2020-11-29T20:15:58.896Z,,,true,25,885.4909999752272,response,8.png,25,10.0,13,6,25,4,2,25,click @btnC,8.366600265340756,63039.38500001095,63037.77499997523,62135.645,62137.12999998825,62152.284,63052.941,
Seq Graph,flow.Sequence,3_5,2020-11-29T20:15:58.896Z,,,,,1385.836999975225,completion,8.png,25,10.0,13,6,25,4,2,,,8.366600265340756,63039.700000023004,63037.77499997523,61635.598,61650.44499997748,61651.938,63052.941,
Fixation Cross,canvas.Screen,3_6_0,2020-11-29T20:15:59.394Z,,,,,500.3099999999977,timeout,4.png,58,42.2,24,58,51,32,46,,,12.464349160706305,63537.29499998735,63536.555,63036.336,63039.94500002591,63052.941,63553.251,
Stimulus Graph,canvas.Screen,3_6_1,2020-11-29T20:16:00.232Z,,,true,58,819.1389999749881,response,4.png,58,42.2,24,58,51,32,46,58,click @btnB,12.464349160706305,64375.32499997178,64372.389999974985,63536.555,63537.84499998437,63553.251,64387.144,
Seq Graph,flow.Sequence,3_6,2020-11-29T20:16:00.232Z,,,,,1319.4489999749858,completion,4.png,58,42.2,24,58,51,32,46,,,12.464349160706305,64375.95499999588,64372.389999974985,63036.336,63039.899999974295,63052.941,64387.144,
Fixation Cross,canvas.Screen,3_7_0,2020-11-29T20:16:00.728Z,,,,,500.35899999999674,timeout,5.png,35,19.6,17,19,27,0,35,,,11.689311356961968,64871.71999999555,64870.84,64370.482,64376.45500001963,64387.144,64887.503,
Stimulus Graph,canvas.Screen,3_7_1,2020-11-29T20:16:01.653Z,,,false,35,906.5220000101544,response,5.png,35,19.6,17,19,27,0,35,0,click @btnD,11.689311356961968,65796.7199999839,65794.02500001015,64870.84,64872.37499997718,64887.503,65805.122,
Seq Graph,flow.Sequence,3_7,2020-11-29T20:16:01.654Z,,,,,1406.8810000101512,completion,5.png,35,19.6,17,19,27,0,35,,,11.689311356961968,65797.14999999851,65794.02500001015,64370.482,64376.34999997681,64387.144,65805.122,
Fixation Cross,canvas.Screen,3_8_0,2020-11-29T20:16:02.146Z,,,,,500.025999999998,timeout,9.png,73,64.2,71,69,73,55,53,,,8.44748483277715,66289.22999999486,66288.429,65788.132,65797.42999997688,65805.122,66305.148,
Stimulus Graph,canvas.Screen,3_8_1,2020-11-29T20:16:03.123Z,,,true,73,958.147000011566,response,9.png,73,64.2,71,69,73,55,53,73,click @btnC,8.44748483277715,67266.04999997653,67263.29500001157,66288.429,66290.00500001712,66305.148,67272.436,
Seq Graph,flow.Sequence,3_8,2020-11-29T20:16:03.123Z,,,,,1458.173000011564,completion,9.png,73,64.2,71,69,73,55,53,,,8.44748483277715,67266.62999996915,67263.29500001157,65788.132,65797.37500002375,65805.122,67272.436,
Fixation Cross,canvas.Screen,3_9_0,2020-11-29T20:16:03.614Z,,,,,500.3729999999923,timeout,3.png,75,45.6,56,28,27,75,42,,,18.11739495622922,67756.99500000337,67756.127,67255.794,67267.0849999995,67272.436,67772.809,
Stimulus Graph,canvas.Screen,3_9_1,2020-11-29T20:16:04.485Z,,,true,75,852.050999981715,response,3.png,75,45.6,56,28,27,75,42,75,click @btnD,18.11739495622922,68628.77999997,68624.85999998171,67756.127,67757.574999996,67772.809,68640.175,
Seq Graph,flow.Sequence,3_9,2020-11-29T20:16:04.486Z,,,,,1352.4239999817073,completion,3.png,75,45.6,56,28,27,75,42,,,18.11739495622922,68629.4549999875,68624.85999998171,67255.794,67266.99500001268,67272.436,68640.175,
Loop Graph,flow.Loop,3,2020-11-29T20:16:04.486Z,,,,,15161.923999981707,completion,,,,,,,,,,,,68629.93499997538,68624.85999998171,53446.154,53467.99999999348,53462.936,68640.175,
Ending,html.Page,4,2020-11-29T20:16:12.188Z,,,,,7691.029999994949,form submission,,,,,,,,,,,,76331.62499999162,76331.20499999495,68623.376,68630.21999999182,68640.175,76345.342,
root,flow.Sequence,,2020-11-29T20:16:12.198Z,,,,,72002.09799999495,completion,,,,,,,,,,,,76341.47500002291,76331.20499999495,3662.044,3674.959999974817,4329.107,76345.342,