sender,sender_type,sender_id,timestamp,meta,,correct,correctResponse,duration,ended_on,img,max,mean,num1,num2,num3,num4,num5,response,response_action,std,time_commit,time_end,time_render,time_run,time_show,time_switch,url
Opening,html.Page,0,2020-11-29T21:19:53.754Z,"{""labjs_version"":""20.1.1"",""labjs_build"":{""flavor"":""production"",""commit"":""c48ac4ada3769e8d34489594ab03097d5f256ac7""},""location"":""file:///C:/Users/lab/Desktop/study-export/index.html"",""userAgent"":""Mozilla/5.0 (Windows NT 10.0; Win64; x64) AppleWebKit/537.36 (KHTML, like Gecko) Chrome/85.0.4183.102 Safari/537.36"",""platform"":""Win32"",""language"":""ja-JP"",""locale"":""ja"",""timeZone"":""Asia/Tokyo"",""timezoneOffset"":-540,""screen_width"":1368,""screen_height"":912,""scroll_width"":1368,""scroll_height"":778,""window_innerWidth"":1368,""window_innerHeight"":802,""devicePixelRatio"":2}",,,,35970.055999989105,form submission,,,,,,,,,,,,38323.96999996854,38323.2999999891,2269.838,2269.770000013523,2353.244,38344.66,{}
Fixation Cross,canvas.Screen,1_0_0,2020-11-29T21:19:54.260Z,,,,,500.390999999996,timeout,5.png,35,19.6,17,19,27,0,35,,,11.689311356961968,38829.96000000276,38828.422,38311.318,38324.51000000583,38344.66,38845.051,
Stimulus Number,canvas.Screen,1_0_1,2020-11-29T21:19:56.741Z,,,true,35,2463.683999969602,response,5.png,35,19.6,17,19,27,0,35,35,click @btnE,11.689311356961968,41311.16500002099,41308.7349999696,38828.422,38830.55000001332,38845.051,41331.695,
Seq Number,flow.Sequence,1_0,2020-11-29T21:19:56.742Z,,,,,2964.074999969598,completion,5.png,35,19.6,17,19,27,0,35,,,11.689311356961968,41312.13500001468,41308.7349999696,38311.318,38324.465000012424,38344.66,41331.695,
Fixation Cross,canvas.Screen,1_1_0,2020-11-29T21:19:57.245Z,,,,,498.7350000000006,timeout,0.png,41,32.4,27,41,22,38,34,,,7.002856560004639,41814.57499996759,41813.805,41296.762,41312.745000002906,41331.695,41830.43,
Stimulus Number,canvas.Screen,1_1_1,2020-11-29T21:20:00.613Z,,,true,41,3349.9899999896807,response,0.png,41,32.4,27,41,22,38,34,41,click @btnB,7.002856560004639,45182.79499997152,45180.41999998968,41813.805,41814.97499998659,41830.43,45201.24,
Seq Number,flow.Sequence,1_1,2020-11-29T21:20:00.614Z,,,,,3848.7249999896812,completion,0.png,41,32.4,27,41,22,38,34,,,7.002856560004639,45183.2750000176,45180.41999998968,41296.762,41312.604999984615,41331.695,45201.24,
Fixation Cross,canvas.Screen,1_2_0,2020-11-29T21:20:01.114Z,,,,,498.49000000000524,timeout,6.png,76,63.6,72,76,65,46,59,,,10.556514576317317,45683.84999997215,45683.069,45166.077,45183.84499999229,45201.24,45699.73,
Stimulus Number,canvas.Screen,1_2_1,2020-11-29T21:20:03.186Z,,,true,76,2053.064999978502,response,6.png,76,63.6,72,76,65,46,59,76,click @btnB,10.556514576317317,47755.89500000933,47752.794999978505,45683.069,45684.26000000909,45699.73,47767.864,
Seq Number,flow.Sequence,1_2,2020-11-29T21:20:03.187Z,,,,,2551.554999978507,completion,6.png,76,63.6,72,76,65,46,59,,,10.556514576317317,47756.84499996714,47752.794999978505,45166.077,45183.780000021216,45201.24,47767.864,
Fixation Cross,canvas.Screen,1_3_0,2020-11-29T21:20:03.683Z,,,,,500.3580000000002,timeout,9.png,73,64.2,71,69,73,55,53,,,8.44748483277715,48252.244999981485,48251.548,47751.13,47757.374999986496,47767.864,48268.222,
Stimulus Number,canvas.Screen,1_3_1,2020-11-29T21:20:05.436Z,,,true,73,1734.177999997577,response,9.png,73,64.2,71,69,73,55,53,73,click @btnC,8.44748483277715,50005.30499999877,50002.39999999758,48251.548,48252.64999998035,48268.222,50019.438,
Seq Number,flow.Sequence,1_3,2020-11-29T21:20:05.436Z,,,,,2234.535999997577,completion,9.png,73,64.2,71,69,73,55,53,,,8.44748483277715,50005.84499997785,50002.39999999758,47751.13,47757.31999997515,47767.864,50019.438,
Fixation Cross,canvas.Screen,1_4_0,2020-11-29T21:20:05.934Z,,,,,500.2809999999954,timeout,8.png,25,10.0,13,6,25,4,2,,,8.366600265340756,50503.894999972545,50503.08,50002.696,50006.099999998696,50019.438,50519.719,
Stimulus Number,canvas.Screen,1_4_1,2020-11-29T21:20:07.176Z,,,true,25,1223.4560000105266,response,8.png,25,10.0,13,6,25,4,2,25,click @btnC,8.366600265340756,51745.54999999236,51743.175000010524,50503.08,50504.409999994095,50519.719,51753.917,
Seq Number,flow.Sequence,1_4,2020-11-29T21:20:07.176Z,,,,,1723.737000010522,completion,8.png,25,10.0,13,6,25,4,2,,,8.366600265340756,51745.95499999123,51743.175000010524,50002.696,50006.04999996722,50019.438,51753.917,
Fixation Cross,canvas.Screen,1_5_0,2020-11-29T21:20:07.669Z,,,,,500.3220000000001,timeout,3.png,75,45.6,56,28,27,75,42,,,18.11739495622922,52238.4299999685,52237.644,51737.291,51746.204999974,51753.917,52254.239,
Stimulus Number,canvas.Screen,1_5_1,2020-11-29T21:20:09.496Z,,,false,75,1808.9009999838308,response,3.png,75,45.6,56,28,27,75,42,56,click @btnA,18.11739495622922,54065.75999996858,54063.13999998383,52237.644,52238.8149999897,52254.239,54072.152,
Seq Number,flow.Sequence,1_5,2020-11-29T21:20:09.497Z,,,,,2309.222999983831,completion,3.png,75,45.6,56,28,27,75,42,,,18.11739495622922,54066.43999996595,54063.13999998383,51737.291,51746.15500000073,51753.917,54072.152,
Fixation Cross,canvas.Screen,1_6_0,2020-11-29T21:20:09.987Z,,,,,500.4320000000007,timeout,7.png,85,77.6,79,73,85,77,74,,,4.2708313008125245,54556.53499998152,54555.891,54055.537,54066.91499997396,54072.152,54572.584,
Stimulus Number,canvas.Screen,1_6_1,2020-11-29T21:20:11.842Z,,,true,85,1836.8809999751684,response,7.png,85,77.6,79,73,85,77,74,85,click @btnC,4.2708313008125245,56411.825000017416,56409.46499997517,54555.891,54556.90500000492,54572.584,56423.816,
Seq Number,flow.Sequence,1_6,2020-11-29T21:20:11.843Z,,,,,2337.312999975169,completion,7.png,85,77.6,79,73,85,77,74,,,4.2708313008125245,56412.25499997381,56409.46499997517,54055.537,54066.835000005085,54072.152,56423.816,
Fixation Cross,canvas.Screen,1_7_0,2020-11-29T21:20:12.339Z,,,,,500.3689999999988,timeout,4.png,58,42.2,24,58,51,32,46,,,12.464349160706305,56908.20000000531,56907.529,56407.125,56412.49499999685,56423.816,56924.185,
Stimulus Number,canvas.Screen,1_7_1,2020-11-29T21:20:14.025Z,,,true,58,1667.930000006745,response,4.png,58,42.2,24,58,51,32,46,58,click @btnB,12.464349160706305,58594.84999999404,58592.11500000674,56907.529,56908.545000012964,56924.185,58608.678,
Seq Number,flow.Sequence,1_7,2020-11-29T21:20:14.026Z,,,,,2168.299000006744,completion,4.png,58,42.2,24,58,51,32,46,,,12.464349160706305,58595.2549999929,58592.11500000674,56407.125,56412.44499996537,56423.816,58608.678,
Fixation Cross,canvas.Screen,1_8_0,2020-11-29T21:20:14.524Z,,,,,500.40899999999965,timeout,2.png,93,86.0,93,90,79,92,76,,,7.0710678118654755,59093.20000000298,59092.364,58591.996,58595.52500001155,58608.678,59109.087,
Stimulus Number,canvas.Screen,1_8_1,2020-11-29T21:20:15.953Z,,,true,93,1411.4029999662307,response,2.png,93,86.0,93,90,79,92,76,93,click @btnA,7.0710678118654755,60522.6149999653,60520.48999996623,59092.364,59093.52499997476,59109.087,60526.64,
Seq Number,flow.Sequence,1_8,2020-11-29T21:20:15.953Z,,,,,1911.8119999662304,completion,2.png,93,86.0,93,90,79,92,76,,,7.0710678118654755,60522.999999986496,60520.48999996623,58591.996,58595.47499998007,58608.678,60526.64,
Fixation Cross,canvas.Screen,1_9_0,2020-11-29T21:20:16.442Z,,,,,500.3530000000028,timeout,1.png,104,92.2,95,84,104,82,96,,,8.158431221748456,61011.115000001155,61010.33,60510.006,60523.24000000954,60526.64,61026.993,
Stimulus Number,canvas.Screen,1_9_1,2020-11-29T21:20:18.552Z,,,true,104,2092.286999984426,response,1.png,104,92.2,95,84,104,82,96,104,click @btnC,8.158431221748456,63121.58500001533,63119.27999998443,61010.33,61011.58499997109,61026.993,63128.408,
Seq Number,flow.Sequence,1_9,2020-11-29T21:20:18.552Z,,,,,2592.639999984429,completion,1.png,104,92.2,95,84,104,82,96,,,8.158431221748456,63121.97500001639,63119.27999998443,60510.006,60523.18999997806,60526.64,63128.408,
Loop Number,flow.Loop,1,2020-11-29T21:20:18.553Z,,,,,24774.619999984425,completion,,,,,,,,,,,,63122.30499996804,63119.27999998443,38311.318,38324.42000001902,38344.66,63128.408,
Interval,html.Page,2,2020-11-29T21:20:31.780Z,,,,,13220.646999998768,form submission,,,,,,,,,,,,76349.40000000643,76349.05499999877,63111.721,63122.49999999767,63128.408,76354.206,
Fixation Cross,canvas.Screen,3_0_0,2020-11-29T21:20:32.269Z,,,,,500.3149999999878,timeout,8.png,25,10.0,13,6,25,4,2,,,8.366600265340756,76838.63499999279,76837.908,76337.499,76349.7249999782,76354.206,76854.521,
Stimulus Graph,canvas.Screen,3_0_1,2020-11-29T21:20:33.577Z,,,true,25,1290.258999973259,response,8.png,25,10.0,13,6,25,4,2,25,click @btnC,8.366600265340756,78146.9999999972,78144.77999997325,76837.908,76839.1249999986,76854.521,78155.439,
Seq Graph,flow.Sequence,3_0,2020-11-29T21:20:33.578Z,,,,,1790.5739999732468,completion,8.png,25,10.0,13,6,25,4,2,,,8.366600265340756,78147.70999999018,78144.77999997325,76337.499,76349.68499996467,76354.206,78155.439,
Fixation Cross,canvas.Screen,3_1_0,2020-11-29T21:20:34.070Z,,,,,500.3709999999992,timeout,7.png,85,77.6,79,73,85,77,74,,,4.2708313008125245,78639.95500002056,78639.206,78138.802,78148.199999996,78155.439,78655.81,
Stimulus Graph,canvas.Screen,3_1_1,2020-11-29T21:20:35.431Z,,,true,85,1341.960000016319,response,7.png,85,77.6,79,73,85,77,74,85,click @btnC,4.2708313008125245,80000.1850000117,79997.77000001632,78639.206,78640.32000000589,78655.81,80006.759,
Seq Graph,flow.Sequence,3_1,2020-11-29T21:20:35.431Z,,,,,1842.3310000163183,completion,7.png,85,77.6,79,73,85,77,74,,,4.2708313008125245,80000.8749999688,79997.77000001632,78138.802,78148.11000000918,78155.439,80006.759,
Fixation Cross,canvas.Screen,3_2_0,2020-11-29T21:20:35.922Z,,,,,500.3439999999973,timeout,0.png,41,32.4,27,41,22,38,34,,,7.002856560004639,80491.08499998692,80490.449,79990.128,80001.36499997461,80006.759,80507.103,
Stimulus Graph,canvas.Screen,3_2_1,2020-11-29T21:20:37.371Z,,,true,41,1431.2119999775896,response,0.png,41,32.4,27,41,22,38,34,41,click @btnB,7.002856560004639,81940.55499997921,81938.31499997759,80490.449,80491.46499997005,80507.103,81941.377,
Seq Graph,flow.Sequence,3_2,2020-11-29T21:20:37.371Z,,,,,1931.555999977587,completion,0.png,41,32.4,27,41,22,38,34,,,7.002856560004639,81940.96500001615,81938.31499997759,79990.128,80001.27000000793,80006.759,81941.377,
Fixation Cross,canvas.Screen,3_3_0,2020-11-29T21:20:37.856Z,,,,,500.4060000000027,timeout,6.png,76,63.6,72,76,65,46,59,,,10.556514576317317,82425.9299999685,82425.1,81924.737,81941.21499999892,81941.377,82441.783,
Stimulus Graph,canvas.Screen,3_3_1,2020-11-29T21:20:39.144Z,,,true,76,1269.9469999808935,response,6.png,76,63.6,72,76,65,46,59,76,click @btnB,10.556514576317317,83713.85499997996,83711.72999998089,82425.1,82426.53499997687,82441.783,83725.982,
Seq Graph,flow.Sequence,3_3,2020-11-29T21:20:39.145Z,,,,,1770.3529999808961,completion,6.png,76,63.6,72,76,65,46,59,,,10.556514576317317,83714.25000001909,83711.72999998089,81924.737,81941.16499996744,81941.377,83725.982,
Fixation Cross,canvas.Screen,3_4_0,2020-11-29T21:20:39.641Z,,,,,500.3600000000006,timeout,5.png,35,19.6,17,19,27,0,35,,,11.689311356961968,84210.45499999309,84209.694,83709.327,83714.5100000198,83725.982,84226.342,
Stimulus Graph,canvas.Screen,3_4_1,2020-11-29T21:20:40.676Z,,,true,35,1016.5779999896768,response,5.png,35,19.6,17,19,27,0,35,35,click @btnE,11.689311356961968,85245.80999999307,85242.91999998968,84209.694,84211.04500000365,84226.342,85260.53,
Seq Graph,flow.Sequence,3_4,2020-11-29T21:20:40.677Z,,,,,1516.9379999896773,completion,5.png,35,19.6,17,19,27,0,35,,,11.689311356961968,85246.50999996811,85242.91999998968,83709.327,83714.46499996819,83725.982,85260.53,
Fixation Cross,canvas.Screen,3_5_0,2020-11-29T21:20:41.175Z,,,,,500.13700000000244,timeout,1.png,104,92.2,95,84,104,82,96,,,8.158431221748456,85744.68000000343,85744.022,85243.711,85246.9900000142,85260.53,85760.667,
Stimulus Graph,canvas.Screen,3_5_1,2020-11-29T21:20:42.234Z,,,true,104,1040.6779999853024,response,1.png,104,92.2,95,84,104,82,96,104,click @btnC,8.158431221748456,86803.84499998763,86801.3449999853,85744.022,85745.04999996861,85760.667,86811.391,
Seq Graph,flow.Sequence,3_5,2020-11-29T21:20:42.235Z,,,,,1540.814999985305,completion,1.png,104,92.2,95,84,104,82,96,,,8.158431221748456,86804.38499996671,86801.3449999853,85243.711,85246.90500000725,85260.53,86811.391,
Fixation Cross,canvas.Screen,3_6_0,2020-11-29T21:20:42.726Z,,,,,500.3729999999923,timeout,4.png,58,42.2,24,58,51,32,46,,,12.464349160706305,87295.83499999717,87295.097,86794.765,86804.62999996962,86811.391,87311.764,
Stimulus Graph,canvas.Screen,3_6_1,2020-11-29T21:20:43.955Z,,,true,58,1210.581000004866,response,4.png,58,42.2,24,58,51,32,46,58,click @btnB,12.464349160706305,88524.44499998819,88522.34500000486,87295.097,87296.15499998908,87311.764,88529.243,
Seq Graph,flow.Sequence,3_6,2020-11-29T21:20:43.955Z,,,,,1710.9540000048582,completion,4.png,58,42.2,24,58,51,32,46,,,12.464349160706305,88524.86499998486,88522.34500000486,86794.765,86804.58499997621,86811.391,88529.243,
Fixation Cross,canvas.Screen,3_7_0,2020-11-29T21:20:44.444Z,,,,,500.3619999999937,timeout,2.png,93,86.0,93,90,79,92,76,,,7.0710678118654755,89013.60999996541,89012.935,88512.583,88525.1050000079,88529.243,89029.605,
Stimulus Graph,canvas.Screen,3_7_1,2020-11-29T21:20:45.926Z,,,true,93,1463.2100000050705,response,2.png,93,86.0,93,90,79,92,76,93,click @btnA,7.0710678118654755,90495.04999996861,90492.81500000507,89012.935,89013.99499998661,89029.605,90497.28,
Seq Graph,flow.Sequence,3_7,2020-11-29T21:20:45.926Z,,,,,1963.5720000050642,completion,2.png,93,86.0,93,90,79,92,76,,,7.0710678118654755,90495.5150000169,90492.81500000507,88512.583,88525.06000001449,88529.243,90497.28,
Fixation Cross,canvas.Screen,3_8_0,2020-11-29T21:20:46.412Z,,,,,500.37399999999616,timeout,3.png,75,45.6,56,28,27,75,42,,,18.11739495622922,90981.74499999732,90980.994,90480.599,90495.76499999966,90497.28,90997.654,
Stimulus Graph,canvas.Screen,3_8_1,2020-11-29T21:20:47.228Z,,,true,75,797.1409999943426,response,3.png,75,45.6,56,28,27,75,42,75,click @btnD,18.11739495622922,91797.32499999227,91794.79499999434,90980.994,90982.22999996506,90997.654,91798.168,
Seq Graph,flow.Sequence,3_8,2020-11-29T21:20:47.229Z,,,,,1297.5149999943387,completion,3.png,75,45.6,56,28,27,75,42,,,18.11739495622922,91798.00999996951,91794.79499999434,90480.599,90495.72000000626,90497.28,91798.168,
Fixation Cross,canvas.Screen,3_9_0,2020-11-29T21:20:47.713Z,,,,,500.3429999999935,timeout,9.png,73,64.2,71,69,73,55,53,,,8.44748483277715,92282.57999999914,92281.862,91781.535,91798.84499998298,91798.168,92298.511,
Stimulus Graph,canvas.Screen,3_9_1,2020-11-29T21:20:48.629Z,,,true,73,898.0490000112331,response,9.png,73,64.2,71,69,73,55,53,73,click @btnC,8.44748483277715,93198.77999997698,93196.56000001123,92281.862,92282.9250000068,92298.511,93199.125,
Seq Graph,flow.Sequence,3_9,2020-11-29T21:20:48.630Z,,,,,1398.3920000112266,completion,9.png,73,64.2,71,69,73,55,53,,,8.44748483277715,93199.38000000548,93196.56000001123,91781.535,91798.69999998482,91798.168,93199.125,
Loop Graph,flow.Loop,3,2020-11-29T21:20:48.630Z,,,,,16842.354000011226,completion,,,,,,,,,,,,93199.99499997357,93196.56000001123,76337.499,76349.63000001153,76354.206,93199.125,
Ending,html.Page,4,2020-11-29T21:20:54.457Z,,,,,5827.094999999739,form submission,,,,,,,,,,,,99026.46500000264,99026.21999999974,93182.444,93200.29999996768,93199.125,99036.458,
root,flow.Sequence,,2020-11-29T21:20:54.458Z,,,,,96672.97599999973,completion,,,,,,,,,,,,99027.4999999674,99026.21999999974,2269.838,2269.4749999791384,2353.244,99036.458,