sender,sender_type,sender_id,timestamp,meta,,correct,correctResponse,duration,ended_on,img,max,mean,num1,num2,num3,num4,num5,response,response_action,std,time_commit,time_end,time_render,time_run,time_show,time_switch,url
Opening,html.Page,0,2020-11-29T21:54:36.714Z,"{""labjs_version"":""20.1.1"",""labjs_build"":{""flavor"":""production"",""commit"":""c48ac4ada3769e8d34489594ab03097d5f256ac7""},""location"":""file:///C:/Users/lab/Desktop/study-export/index.html"",""userAgent"":""Mozilla/5.0 (Windows NT 10.0; Win64; x64) AppleWebKit/537.36 (KHTML, like Gecko) Chrome/85.0.4183.102 Safari/537.36"",""platform"":""Win32"",""language"":""ja-JP"",""locale"":""ja"",""timeZone"":""Asia/Tokyo"",""timezoneOffset"":-540,""screen_width"":1368,""screen_height"":912,""scroll_width"":1368,""scroll_height"":778,""window_innerWidth"":1368,""window_innerHeight"":802,""devicePixelRatio"":2}",,,,300738.6379999703,form submission,,,,,,,,,,,,303286.6749999812,303285.9549999703,2363.941,2358.204999996815,2547.317,303335.019,{}
Fixation Cross,canvas.Screen,1_0_0,2020-11-29T21:54:37.247Z,,,,,500.3880000000354,timeout,7.png,85,77.6,79,73,85,77,74,,,4.2708313008125245,303820.00499998685,303818.764,303268.346,303287.3049999471,303335.019,303835.407,
Stimulus Number,canvas.Screen,1_0_1,2020-11-29T21:54:39.992Z,,,true,85,2725.6179999444867,response,7.png,85,77.6,79,73,85,77,74,85,click @btnC,4.2708313008125245,306564.1149999574,306561.0249999445,303818.764,303820.34499995643,303835.407,306570.599,
Seq Number,flow.Sequence,1_0,2020-11-29T21:54:39.992Z,,,,,3226.005999944522,completion,7.png,85,77.6,79,73,85,77,74,,,4.2708313008125245,306564.7599999793,306561.0249999445,303268.346,303287.23499999614,303335.019,306570.599,
Fixation Cross,canvas.Screen,1_1_0,2020-11-29T21:54:40.483Z,,,,,500.3269999999902,timeout,0.png,41,32.4,27,41,22,38,34,,,7.002856560004639,307055.05499994615,307054.309,306553.885,306565.094999969,306570.599,307070.926,
Stimulus Number,canvas.Screen,1_1_1,2020-11-29T21:54:42.239Z,,,true,41,1739.1839999621734,response,0.png,41,32.4,27,41,22,38,34,41,click @btnB,7.002856560004639,308811.8199999444,308810.10999996215,307054.309,307055.2899999893,307070.926,308822.12,
Seq Number,flow.Sequence,1_1,2020-11-29T21:54:42.240Z,,,,,2239.5109999621636,completion,0.png,41,32.4,27,41,22,38,34,,,7.002856560004639,308812.0949999429,308810.10999996215,306553.885,306565.01999998,306570.599,308822.12,
Fixation Cross,canvas.Screen,1_2_0,2020-11-29T21:54:42.734Z,,,,,500.41700000001583,timeout,8.png,25,10.0,13,6,25,4,2,,,8.366600265340756,309306.54499999946,309305.861,308805.558,308812.2549999971,308822.12,309322.537,
Stimulus Number,canvas.Screen,1_2_1,2020-11-29T21:54:43.795Z,,,true,25,1041.6579999728128,response,8.png,25,10.0,13,6,25,4,2,25,click @btnC,8.366600265340756,310367.50999995274,310364.1949999728,309305.861,309306.80999998003,309322.537,310373.313,
Seq Number,flow.Sequence,1_2,2020-11-29T21:54:43.796Z,,,,,1542.0749999728287,completion,8.png,25,10.0,13,6,25,4,2,,,8.366600265340756,310368.0099999765,310364.1949999728,308805.558,308812.2249999433,308822.12,310373.313,
Fixation Cross,canvas.Screen,1_3_0,2020-11-29T21:54:44.285Z,,,,,500.2719999999972,timeout,4.png,58,42.2,24,58,51,32,46,,,12.464349160706305,310857.6199999661,310856.893,310356.632,310368.28999995487,310373.313,310873.585,
Stimulus Number,canvas.Screen,1_3_1,2020-11-29T21:54:45.585Z,,,true,58,1281.289999949222,response,4.png,58,42.2,24,58,51,32,46,58,click @btnB,12.464349160706305,312157.3549999739,312154.87499994924,310856.893,310858.04499994265,310873.585,312157.79,
Seq Number,flow.Sequence,1_3,2020-11-29T21:54:45.586Z,,,,,1781.5619999492192,completion,4.png,58,42.2,24,58,51,32,46,,,12.464349160706305,312158.26999995625,312154.87499994924,310356.632,310368.2349999435,310373.313,312157.79,
Fixation Cross,canvas.Screen,1_4_0,2020-11-29T21:54:46.070Z,,,,,500.32300000003306,timeout,1.png,104,92.2,95,84,104,82,96,,,8.158431221748456,312642.194999964,312641.484,312141.093,312158.6499999976,312157.79,312658.113,
Stimulus Number,canvas.Screen,1_4_1,2020-11-29T21:54:47.096Z,,,true,104,1007.7369999903021,response,1.png,104,92.2,95,84,104,82,96,104,click @btnC,8.158431221748456,313668.1399999652,313665.8499999903,312641.484,312642.45999994455,312658.113,313675.563,
Seq Number,flow.Sequence,1_4,2020-11-29T21:54:47.096Z,,,,,1508.0599999903352,completion,1.png,104,92.2,95,84,104,82,96,,,8.158431221748456,313668.54499996407,313665.8499999903,312141.093,312158.5999999661,312157.79,313675.563,
Fixation Cross,canvas.Screen,1_5_0,2020-11-29T21:54:47.587Z,,,,,500.23399999999674,timeout,9.png,73,64.2,71,69,73,55,53,,,8.44748483277715,314159.9399999832,314159.226,313658.846,313668.79499994684,313675.563,314175.797,
Stimulus Number,canvas.Screen,1_5_1,2020-11-29T21:54:49.228Z,,,true,73,1622.5529999972787,response,9.png,73,64.2,71,69,73,55,53,73,click @btnC,8.44748483277715,315800.7149999612,315798.3499999973,314159.226,314160.15999997035,314175.797,315810.455,
Seq Number,flow.Sequence,1_5,2020-11-29T21:54:49.229Z,,,,,2122.7869999972754,completion,9.png,73,64.2,71,69,73,55,53,,,8.44748483277715,315801.4499999699,315798.3499999973,313658.846,313668.74499997357,313675.563,315810.455,
Fixation Cross,canvas.Screen,1_6_0,2020-11-29T21:54:49.722Z,,,,,500.17699999996694,timeout,3.png,75,45.6,56,28,27,75,42,,,18.11739495622922,316294.7999999742,316294.034,315793.654,315801.9599999534,315810.455,316310.632,
Stimulus Number,canvas.Screen,1_6_1,2020-11-29T21:54:51.219Z,,,true,75,1478.2329999513458,response,3.png,75,45.6,56,28,27,75,42,75,click @btnD,18.11739495622922,317791.9149999507,317788.8649999513,316294.034,316295.23499996867,316310.632,317795.009,
Seq Number,flow.Sequence,1_6,2020-11-29T21:54:51.220Z,,,,,1978.4099999513128,completion,3.png,75,45.6,56,28,27,75,42,,,18.11739495622922,317792.6999999909,317788.8649999513,315793.654,315801.8549999688,315810.455,317795.009,
Fixation Cross,canvas.Screen,1_7_0,2020-11-29T21:54:51.707Z,,,,,500.31199999997625,timeout,5.png,35,19.6,17,19,27,0,35,,,11.689311356961968,318279.36999994563,318278.698,317778.335,317793.23999996996,317795.009,318295.321,
Stimulus Number,canvas.Screen,1_7_1,2020-11-29T21:54:52.782Z,,,true,35,1056.4489999501966,response,5.png,35,19.6,17,19,27,0,35,35,click @btnE,11.689311356961968,319354.4099999708,319351.7699999502,318278.698,318279.6199999866,318295.321,319362.761,
Seq Number,flow.Sequence,1_7,2020-11-29T21:54:52.783Z,,,,,1556.7609999501728,completion,5.png,35,19.6,17,19,27,0,35,,,11.689311356961968,319355.1149999839,319351.7699999502,317778.335,317793.14499994507,317795.009,319362.761,
Fixation Cross,canvas.Screen,1_8_0,2020-11-29T21:54:53.275Z,,,,,500.39100000000326,timeout,2.png,93,86.0,93,90,79,92,76,,,7.0710678118654755,319847.1599999466,319846.449,319346.045,319355.5949999718,319362.761,319863.152,
Stimulus Number,canvas.Screen,1_8_1,2020-11-29T21:54:54.573Z,,,true,93,1279.7379999591503,response,2.png,93,86.0,93,90,79,92,76,93,click @btnA,7.0710678118654755,321145.2349999454,321142.88999995915,319846.449,319847.6249999949,319863.152,321147.289,
Seq Number,flow.Sequence,1_8,2020-11-29T21:54:54.573Z,,,,,1780.1289999591536,completion,2.png,93,86.0,93,90,79,92,76,,,7.0710678118654755,321145.6349999644,321142.88999995915,319346.045,319355.50999996485,319362.761,321147.289,
Fixation Cross,canvas.Screen,1_9_0,2020-11-29T21:54:55.059Z,,,,,500.37200000003213,timeout,6.png,76,63.6,72,76,65,46,59,,,10.556514576317317,321631.6549999756,321630.999,321130.625,321145.8799999673,321147.289,321647.661,
Stimulus Number,canvas.Screen,1_9_1,2020-11-29T21:54:56.606Z,,,true,76,1528.6739999673446,response,6.png,76,63.6,72,76,65,46,59,76,click @btnB,10.556514576317317,323178.7899999763,323176.33499996737,321630.999,321632.11999996565,321647.661,323182.052,
Seq Number,flow.Sequence,1_9,2020-11-29T21:54:56.607Z,,,,,2029.0459999673767,completion,6.png,76,63.6,72,76,65,46,59,,,10.556514576317317,323179.4199999422,323176.33499996737,321130.625,321145.8349999739,321147.289,323182.052,
Loop Number,flow.Loop,1,2020-11-29T21:54:56.608Z,,,,,19841.315999967395,completion,,,,,,,,,,,,323180.0199999707,323176.33499996737,303268.346,303287.1499999892,303335.019,323182.052,
Interval,html.Page,2,2020-11-29T21:55:07.469Z,,,,,10860.192999960505,form submission,,,,,,,,,,,,334042.5849999883,334042.24499996053,323165.41,323180.36499997834,323182.052,334039.49,
Fixation Cross,canvas.Screen,3_0_0,2020-11-29T21:55:07.950Z,,,,,500.35899999999674,timeout,7.png,85,77.6,79,73,85,77,74,,,4.2708313008125245,334523.824999982,334523.189,334022.781,334042.89999994216,334039.49,334539.849,
Stimulus Graph,canvas.Screen,3_0_1,2020-11-29T21:55:09.366Z,,,false,85,1397.0809999671183,response,7.png,85,77.6,79,73,85,77,74,74,click @btnE,4.2708313008125245,335939.3699999782,335936.9299999671,334523.189,334524.06999998493,334539.849,335940.804,
Seq Graph,flow.Sequence,3_0,2020-11-29T21:55:09.366Z,,,,,1897.439999967115,completion,7.png,85,77.6,79,73,85,77,74,,,4.2708313008125245,335939.74999996135,335936.9299999671,334022.781,334042.85999998683,334039.49,335940.804,
Fixation Cross,canvas.Screen,3_1_0,2020-11-29T21:55:09.852Z,,,,,500.40299999999115,timeout,1.png,104,92.2,95,84,104,82,96,,,8.158431221748456,336425.1299999887,336424.523,335924.155,335940.0349999778,335940.804,336441.207,
Stimulus Graph,canvas.Screen,3_1_1,2020-11-29T21:55:11.446Z,,,true,104,1575.9529999885126,response,1.png,104,92.2,95,84,104,82,96,104,click @btnC,8.158431221748456,338019.83999996446,338017.1599999885,336424.523,336425.36999995355,336441.207,338025.566,
Seq Graph,flow.Sequence,3_1,2020-11-29T21:55:11.447Z,,,,,2076.3559999885038,completion,1.png,104,92.2,95,84,104,82,96,,,8.158431221748456,338020.4449999728,338017.1599999885,335924.155,335939.9849999463,335940.804,338025.566,
Fixation Cross,canvas.Screen,3_2_0,2020-11-29T21:55:11.937Z,,,,,500.3880000000354,timeout,8.png,25,10.0,13,6,25,4,2,,,8.366600265340756,338510.0049999892,338509.297,338008.906,338020.7099999534,338025.566,338525.954,
Stimulus Graph,canvas.Screen,3_2_1,2020-11-29T21:55:12.738Z,,,true,25,783.1909999483032,response,8.png,25,10.0,13,6,25,4,2,25,click @btnC,8.366600265340756,339311.5949999774,339309.14499994833,338509.297,338510.31499996316,338525.954,339326.529,
Seq Graph,flow.Sequence,3_2,2020-11-29T21:55:12.739Z,,,,,1283.5789999483386,completion,8.png,25,10.0,13,6,25,4,2,,,8.366600265340756,339311.90499995137,339309.14499994833,338008.906,338020.6599999801,338025.566,339326.529,
Fixation Cross,canvas.Screen,3_3_0,2020-11-29T21:55:13.238Z,,,,,500.34900000004563,timeout,2.png,93,86.0,93,90,79,92,76,,,7.0710678118654755,339811.02999998257,339810.232,339309.788,339312.13499995647,339326.529,339826.878,
Stimulus Graph,canvas.Screen,3_3_1,2020-11-29T21:55:14.558Z,,,true,93,1302.846999947913,response,2.png,93,86.0,93,90,79,92,76,93,click @btnA,7.0710678118654755,341131.4499999862,341129.72499994794,339810.232,339811.5899999975,339826.878,341144.382,
Seq Graph,flow.Sequence,3_3,2020-11-29T21:55:14.558Z,,,,,1803.1959999479586,completion,2.png,93,86.0,93,90,79,92,76,,,7.0710678118654755,341131.70499994885,341129.72499994794,339309.788,339312.08999996306,339326.529,341144.382,
Fixation Cross,canvas.Screen,3_4_0,2020-11-29T21:55:15.056Z,,,,,500.3859999999986,timeout,9.png,73,64.2,71,69,73,55,53,,,8.44748483277715,341628.9599999436,341628.063,341127.712,341131.8699999829,341144.382,341644.768,
Stimulus Graph,canvas.Screen,3_4_1,2020-11-29T21:55:15.872Z,,,true,73,798.5119999485905,response,9.png,73,64.2,71,69,73,55,53,73,click @btnC,8.44748483277715,342445.8849999937,342443.2799999486,341628.063,341629.4099999941,341644.768,342467.072,
Seq Graph,flow.Sequence,3_4,2020-11-29T21:55:15.873Z,,,,,1298.8979999485891,completion,9.png,73,64.2,71,69,73,55,53,,,8.44748483277715,342446.32499996806,342443.2799999486,341127.712,341131.8399999873,341144.382,342467.072,
Fixation Cross,canvas.Screen,3_5_0,2020-11-29T21:55:16.373Z,,,,,495.2300000000396,timeout,5.png,35,19.6,17,19,27,0,35,,,11.689311356961968,342946.36999996146,342945.649,342428.705,342446.8549999874,342467.072,342962.302,
Stimulus Graph,canvas.Screen,3_5_1,2020-11-29T21:55:18.265Z,,,false,35,1873.7329999856884,response,5.png,35,19.6,17,19,27,0,35,0,click @btnD,11.689311356961968,344838.22499995586,344836.0349999857,342945.649,342946.8699999852,342962.302,344846.943,
Seq Graph,flow.Sequence,3_5,2020-11-29T21:55:18.265Z,,,,,2368.962999985728,completion,5.png,35,19.6,17,19,27,0,35,,,11.689311356961968,344838.5549999657,344836.0349999857,342428.705,342446.76999998046,342467.072,344846.943,
Fixation Cross,canvas.Screen,3_6_0,2020-11-29T21:55:18.758Z,,,,,500.3849999999511,timeout,4.png,58,42.2,24,58,51,32,46,,,12.464349160706305,345331.3799999887,345330.657,344830.29,344838.7849999708,344846.943,345347.328,
Stimulus Graph,canvas.Screen,3_6_1,2020-11-29T21:55:19.586Z,,,true,58,810.1119999808725,response,4.png,58,42.2,24,58,51,32,46,58,click @btnB,12.464349160706305,346159.6749999444,346157.43999998085,345330.657,345331.6899999627,345347.328,346164.504,
Seq Graph,flow.Sequence,3_6,2020-11-29T21:55:19.587Z,,,,,1310.4969999808236,completion,4.png,58,42.2,24,58,51,32,46,,,12.464349160706305,346159.9949999945,346157.43999998085,344830.29,344838.73499999754,344846.943,346164.504,
Fixation Cross,canvas.Screen,3_7_0,2020-11-29T21:55:20.076Z,,,,,500.3379999999888,timeout,3.png,75,45.6,56,28,27,75,42,,,18.11739495622922,346648.95999996224,346648.231,346147.896,346160.21999996156,346164.504,346664.842,
Stimulus Graph,canvas.Screen,3_7_1,2020-11-29T21:55:22.000Z,,,true,75,1905.7629999571363,response,3.png,75,45.6,56,28,27,75,42,75,click @btnD,18.11739495622922,348573.144999973,348570.60499995714,346648.231,346649.2399999988,346664.842,348582.865,
Seq Graph,flow.Sequence,3_7,2020-11-29T21:55:22.000Z,,,,,2406.100999957125,completion,3.png,75,45.6,56,28,27,75,42,,,18.11739495622922,348573.48999998067,348570.60499995714,346147.896,346160.17499996815,346164.504,348582.865,
Fixation Cross,canvas.Screen,3_8_0,2020-11-29T21:55:22.494Z,,,,,500.33600000001024,timeout,6.png,76,63.6,72,76,65,46,59,,,10.556514576317317,349067.3849999439,349066.612,348566.196,348573.7449999433,348582.865,349083.201,
Stimulus Graph,canvas.Screen,3_8_1,2020-11-29T21:55:23.353Z,,,true,76,840.5989999895683,response,6.png,76,63.6,72,76,65,46,59,76,click @btnB,10.556514576317317,349926.2999999919,349923.79999998957,349066.612,349067.8449999541,349083.201,349933.84,
Seq Graph,flow.Sequence,3_8,2020-11-29T21:55:23.353Z,,,,,1340.9349999895785,completion,6.png,76,63.6,72,76,65,46,59,,,10.556514576317317,349926.6499999794,349923.79999998957,348566.196,348573.69499997003,348582.865,349933.84,
Fixation Cross,canvas.Screen,3_9_0,2020-11-29T21:55:23.845Z,,,,,500.28699999995297,timeout,0.png,41,32.4,27,41,22,38,34,,,7.002856560004639,350418.2449999498,350417.508,349917.143,349926.93999997573,349933.84,350434.127,
Stimulus Graph,canvas.Screen,3_9_1,2020-11-29T21:55:24.695Z,,,true,41,831.8529999674065,response,0.png,41,32.4,27,41,22,38,34,41,click @btnB,7.002856560004639,351268.7149999547,351265.9799999674,350417.508,350418.73499995563,350434.127,351290.77,
Seq Graph,flow.Sequence,3_9,2020-11-29T21:55:24.696Z,,,,,1332.1399999673595,completion,0.png,41,32.4,27,41,22,38,34,,,7.002856560004639,351269.3699999945,351265.9799999674,349917.143,349926.8849999644,349933.84,351290.77,
Loop Graph,flow.Loop,3,2020-11-29T21:55:24.696Z,,,,,17226.489999967394,completion,,,,,,,,,,,,351269.85499996226,351265.9799999674,334022.781,334042.8049999755,334039.49,351290.77,
Ending,html.Page,4,2020-11-29T21:55:26.918Z,,,,,2200.819999990519,form submission,,,,,,,,,,,,353491.8399999733,353491.58999999054,351251.345,351270.0949999853,351290.77,353503.062,
root,flow.Sequence,,2020-11-29T21:55:26.919Z,,,,,350944.27299999056,completion,,,,,,,,,,,,353492.8399999626,353491.58999999054,2363.941,2357.9249999602325,2547.317,353503.062,