sender,sender_type,sender_id,timestamp,meta,,correct,correctResponse,duration,ended_on,img,max,mean,num1,num2,num3,num4,num5,response,response_action,std,time_commit,time_end,time_render,time_run,time_show,time_switch,url
Opening,html.Page,0,2020-11-29T22:10:44.920Z,"{""labjs_version"":""20.1.1"",""labjs_build"":{""flavor"":""production"",""commit"":""c48ac4ada3769e8d34489594ab03097d5f256ac7""},""location"":""file:///C:/Users/lab/Desktop/study-export/index.html"",""userAgent"":""Mozilla/5.0 (Windows NT 10.0; Win64; x64) AppleWebKit/537.36 (KHTML, like Gecko) Chrome/85.0.4183.102 Safari/537.36"",""platform"":""Win32"",""language"":""ja-JP"",""locale"":""ja"",""timeZone"":""Asia/Tokyo"",""timezoneOffset"":-540,""screen_width"":1368,""screen_height"":912,""scroll_width"":1368,""scroll_height"":778,""window_innerWidth"":1368,""window_innerHeight"":802,""devicePixelRatio"":2}",,,,36063.7800000057,form submission,,,,,,,,,,,,37963.22999999393,37962.6200000057,1848.82,1859.1949999681674,1898.84,37990.347,{}
Fixation Cross,canvas.Screen,1_0_0,2020-11-29T22:10:45.432Z,,,,,500.3439999999973,timeout,4.png,58,42.2,24,58,51,32,46,,,12.464349160706305,38475.11499997927,38474.038,37957.112,37963.90500001144,37990.347,38490.691,
Stimulus Number,canvas.Screen,1_0_1,2020-11-29T22:10:48.947Z,,,true,58,3495.7490000078615,response,4.png,58,42.2,24,58,51,32,46,58,click @btnB,12.464349160706305,41990.36499997601,41986.44000000786,38474.038,38475.54999997374,38490.691,42011.795,
Seq Number,flow.Sequence,1_0,2020-11-29T22:10:48.948Z,,,,,3996.093000007859,completion,4.png,58,42.2,24,58,51,32,46,,,12.464349160706305,41991.27999995835,41986.44000000786,37957.112,37963.75499997521,37990.347,42011.795,
Fixation Cross,canvas.Screen,1_1_0,2020-11-29T22:10:49.451Z,,,,,498.3550000000032,timeout,0.png,41,32.4,27,41,22,38,34,,,7.002856560004639,42494.23499999102,42493.471,41976.479,41991.89000000479,42011.795,42510.15,
Stimulus Number,canvas.Screen,1_1_1,2020-11-29T22:10:51.868Z,,,true,41,2400.47999999849,response,0.png,41,32.4,27,41,22,38,34,41,click @btnB,7.002856560004639,44911.785000003874,44910.62999999849,42493.471,42494.60499995621,42510.15,44928.465,
Seq Number,flow.Sequence,1_1,2020-11-29T22:10:51.869Z,,,,,2898.834999998493,completion,0.png,41,32.4,27,41,22,38,34,,,7.002856560004639,44912.519999954384,44910.62999999849,41976.479,41991.73999996856,42011.795,44928.465,
Fixation Cross,canvas.Screen,1_2_0,2020-11-29T22:10:52.369Z,,,,,500.4279999999999,timeout,6.png,76,63.6,72,76,65,46,59,,,10.556514576317317,45412.73999999976,45412.15,44911.838,44912.80499997083,44928.465,45428.893,
Stimulus Number,canvas.Screen,1_2_1,2020-11-29T22:10:54.024Z,,,true,76,1637.4769999568089,response,6.png,76,63.6,72,76,65,46,59,76,click @btnB,10.556514576317317,47067.50499998452,47066.369999956805,45412.15,45413.04999997374,45428.893,47080.018,
Seq Number,flow.Sequence,1_2,2020-11-29T22:10:54.025Z,,,,,2137.9049999568088,completion,6.png,76,63.6,72,76,65,46,59,,,10.556514576317317,47068.0299999658,47066.369999956805,44911.838,44912.75499999756,44928.465,47080.018,
Fixation Cross,canvas.Screen,1_3_0,2020-11-29T22:10:54.521Z,,,,,500.24900000000343,timeout,3.png,75,45.6,56,28,27,75,42,,,18.11739495622922,47564.27999999141,47563.652,47063.28,47068.29500000458,47080.018,47580.267,
Stimulus Number,canvas.Screen,1_3_1,2020-11-29T22:10:56.380Z,,,true,75,1842.0530000124054,response,3.png,75,45.6,56,28,27,75,42,75,click @btnD,18.11739495622922,49423.39999997057,49422.320000012405,47563.652,47564.494999998715,47580.267,49431.553,
Seq Number,flow.Sequence,1_3,2020-11-29T22:10:56.380Z,,,,,2342.302000012409,completion,3.png,75,45.6,56,28,27,75,42,,,18.11739495622922,49423.819999967236,49422.320000012405,47063.28,47068.23999999324,47080.018,49431.553,
Fixation Cross,canvas.Screen,1_4_0,2020-11-29T22:10:56.873Z,,,,,500.3550000000032,timeout,7.png,85,77.6,79,73,85,77,74,,,4.2708313008125245,49915.90500000166,49915.276,49414.927,49424.085000006016,49431.553,49931.908,
Stimulus Number,canvas.Screen,1_4_1,2020-11-29T22:10:58.502Z,,,true,85,1612.6319999734915,response,7.png,85,77.6,79,73,85,77,74,85,click @btnC,4.2708313008125245,51545.61999998987,51544.539999973495,49915.276,49916.165000002366,49931.908,51566.409,
Seq Number,flow.Sequence,1_4,2020-11-29T22:10:58.503Z,,,,,2112.9869999734947,completion,7.png,85,77.6,79,73,85,77,74,,,4.2708313008125245,51545.99999997299,51544.539999973495,49414.927,49424.03499997454,49431.553,51566.409,
Fixation Cross,canvas.Screen,1_5_0,2020-11-29T22:10:59.007Z,,,,,500.3899999999994,timeout,2.png,93,86.0,93,90,79,92,76,,,7.0710678118654755,52050.82999996375,52050.096,51533.071,51546.229999978095,51566.409,52066.799,
Stimulus Number,canvas.Screen,1_5_1,2020-11-29T22:11:00.748Z,,,true,93,1723.5609999845037,response,2.png,93,86.0,93,90,79,92,76,93,click @btnA,7.0710678118654755,53791.42500000307,53790.3599999845,52050.096,52051.23499996262,52066.799,53801.291,
Seq Number,flow.Sequence,1_5,2020-11-29T22:11:00.749Z,,,,,2223.950999984503,completion,2.png,93,86.0,93,90,79,92,76,,,7.0710678118654755,53791.90000001108,53790.3599999845,51533.071,51546.18499998469,51566.409,53801.291,
Fixation Cross,canvas.Screen,1_6_0,2020-11-29T22:11:01.242Z,,,,,500.3610000000044,timeout,8.png,25,10.0,13,6,25,4,2,,,8.366600265340756,54285.57499998715,54284.947,53784.602,53792.190000007395,53801.291,54301.652,
Stimulus Number,canvas.Screen,1_6_1,2020-11-29T22:11:02.413Z,,,true,25,1153.677999967942,response,8.png,25,10.0,13,6,25,4,2,25,click @btnC,8.366600265340756,55456.569999980275,55455.329999967944,54284.947,54285.80499999225,54301.652,55469.049,
Seq Number,flow.Sequence,1_6,2020-11-29T22:11:02.414Z,,,,,1654.0389999679464,completion,8.png,25,10.0,13,6,25,4,2,,,8.366600265340756,55456.959999981336,55455.329999967944,53784.602,53792.139999975916,53801.291,55469.049,
Fixation Cross,canvas.Screen,1_7_0,2020-11-29T22:11:02.910Z,,,,,500.46399999999994,timeout,5.png,35,19.6,17,19,27,0,35,,,11.689311356961968,55953.57499999227,55952.784,55452.448,55457.20499998424,55469.049,55969.513,
Stimulus Number,canvas.Screen,1_7_1,2020-11-29T22:11:04.632Z,,,true,35,1704.8470000045272,response,5.png,35,19.6,17,19,27,0,35,35,click @btnE,11.689311356961968,57675.77500001062,57674.360000004526,55952.784,55953.95999995526,55969.513,57687.247,
Seq Number,flow.Sequence,1_7,2020-11-29T22:11:04.633Z,,,,,2205.311000004527,completion,5.png,35,19.6,17,19,27,0,35,,,11.689311356961968,57676.47000000579,57674.360000004526,55452.448,55457.15500001097,55469.049,57687.247,
Fixation Cross,canvas.Screen,1_8_0,2020-11-29T22:11:05.128Z,,,,,500.3309999999983,timeout,1.png,104,92.2,95,84,104,82,96,,,8.158431221748456,58171.6749999905,58170.983,57670.589,57676.91499995999,57687.247,58187.578,
Stimulus Number,canvas.Screen,1_8_1,2020-11-29T22:11:06.414Z,,,true,104,1269.0369999736795,response,1.png,104,92.2,95,84,104,82,96,104,click @btnC,8.158431221748456,59457.86500000395,59456.61499997368,58170.983,58171.89499997767,58187.578,59471.874,
Seq Number,flow.Sequence,1_8,2020-11-29T22:11:06.415Z,,,,,1769.3679999736778,completion,1.png,104,92.2,95,84,104,82,96,,,8.158431221748456,59458.259999984875,59456.61499997368,57670.589,57676.81999999331,57687.247,59471.874,
Fixation Cross,canvas.Screen,1_9_0,2020-11-29T22:11:06.913Z,,,,,500.2649999999994,timeout,9.png,73,64.2,71,69,73,55,53,,,8.44748483277715,59956.044999998994,59955.487,59455.146,59458.52499996545,59471.874,59972.139,
Stimulus Number,canvas.Screen,1_9_1,2020-11-29T22:11:08.800Z,,,true,73,1868.3710000090869,response,9.png,73,64.2,71,69,73,55,53,73,click @btnC,8.44748483277715,61841.92499995697,61840.51000000909,59955.487,59956.25499996822,59972.139,61856.803,
Seq Number,flow.Sequence,1_9,2020-11-29T22:11:08.801Z,,,,,2368.6360000090863,completion,9.png,73,64.2,71,69,73,55,53,,,8.44748483277715,61842.44999999646,61840.51000000909,59455.146,59458.47499999218,59471.874,61856.803,
Loop Number,flow.Loop,1,2020-11-29T22:11:08.801Z,,,,,23850.163000009088,completion,,,,,,,,,,,,61842.780000006314,61840.51000000909,37957.112,37963.67500000633,37990.347,61856.803,
Interval,html.Page,2,2020-11-29T22:11:23.572Z,,,,,14756.016999980275,form submission,,,,,,,,,,,,76613.3699999773,76612.81999998027,61840.166,61842.95999997994,61856.803,76616.942,
Fixation Cross,canvas.Screen,3_0_0,2020-11-29T22:11:24.059Z,,,,,500.34300000000803,timeout,1.png,104,92.2,95,84,104,82,96,,,8.158431221748456,77101.26500000479,77100.597,76600.301,76613.91499999445,76616.942,77117.285,
Stimulus Graph,canvas.Screen,3_0_1,2020-11-29T22:11:25.385Z,,,true,104,1308.1249999670836,response,1.png,104,92.2,95,84,104,82,96,104,click @btnC,8.158431221748456,78426.91499995999,78425.40999996709,77100.597,77101.49999998976,77117.285,78434.959,
Seq Graph,flow.Sequence,3_0,2020-11-29T22:11:25.386Z,,,,,1808.4679999670916,completion,1.png,104,92.2,95,84,104,82,96,,,8.158431221748456,78427.5749999797,78425.40999996709,76600.301,76613.81999996956,76616.942,78434.959,
Fixation Cross,canvas.Screen,3_1_0,2020-11-29T22:11:25.878Z,,,,,500.29899999999907,timeout,8.png,25,10.0,13,6,25,4,2,,,8.366600265340756,78919.28500001086,78918.572,78418.272,78427.85999999614,78434.959,78935.258,
Stimulus Graph,canvas.Screen,3_1_1,2020-11-29T22:11:26.851Z,,,true,25,955.5319999758212,response,8.png,25,10.0,13,6,25,4,2,25,click @btnC,8.366600265340756,79892.76999997674,79890.78999997582,78918.572,78919.64999999618,78935.258,79902.555,
Seq Graph,flow.Sequence,3_1,2020-11-29T22:11:26.852Z,,,,,1455.8309999758203,completion,8.png,25,10.0,13,6,25,4,2,,,8.366600265340756,79893.5899999924,79890.78999997582,78418.272,78427.80999996467,78434.959,79902.555,
Fixation Cross,canvas.Screen,3_2_0,2020-11-29T22:11:27.345Z,,,,,500.33300000001327,timeout,3.png,75,45.6,56,28,27,75,42,,,18.11739495622922,80386.85499998974,80386.261,79885.938,79894.15999996709,79902.555,80402.888,
Stimulus Graph,canvas.Screen,3_2_1,2020-11-29T22:11:28.612Z,,,true,75,1249.4619999893766,response,3.png,75,45.6,56,28,27,75,42,75,click @btnD,18.11739495622922,81653.714999964,81652.34999998938,80386.261,80387.08499999484,80402.888,81670.435,
Seq Graph,flow.Sequence,3_2,2020-11-29T22:11:28.613Z,,,,,1749.79499998939,completion,3.png,75,45.6,56,28,27,75,42,,,18.11739495622922,81654.60000000894,81652.34999998938,79885.938,79894.06500000041,79902.555,81670.435,
Fixation Cross,canvas.Screen,3_3_0,2020-11-29T22:11:29.113Z,,,,,500.3850000000093,timeout,2.png,93,86.0,93,90,79,92,76,,,7.0710678118654755,82154.72499997122,82154.141,81653.786,81654.91499996278,81670.435,82170.82,
Stimulus Graph,canvas.Screen,3_3_1,2020-11-29T22:11:30.899Z,,,true,93,1768.719999992114,response,2.png,93,86.0,93,90,79,92,76,93,click @btnA,7.0710678118654755,83940.6200000085,83939.53999999212,82154.141,82154.94999999646,82170.82,83955.397,
Seq Graph,flow.Sequence,3_3,2020-11-29T22:11:30.899Z,,,,,2269.1049999921233,completion,2.png,93,86.0,93,90,79,92,76,,,7.0710678118654755,83941.0949999583,83939.53999999212,81653.786,81654.86000000965,81670.435,83955.397,
Fixation Cross,canvas.Screen,3_4_0,2020-11-29T22:11:31.398Z,,,,,500.247000000003,timeout,4.png,58,42.2,24,58,51,32,46,,,12.464349160706305,84440.15499996021,84439.274,83938.684,83941.34499999927,83955.397,84455.644,
Stimulus Graph,canvas.Screen,3_4_1,2020-11-29T22:11:33.103Z,,,true,58,1687.7410000030359,response,4.png,58,42.2,24,58,51,32,46,58,click @btnB,12.464349160706305,86144.6199999773,86143.38500000304,84439.274,84440.39499998325,84455.644,86156.844,
Seq Graph,flow.Sequence,3_4,2020-11-29T22:11:33.104Z,,,,,2187.988000003039,completion,4.png,58,42.2,24,58,51,32,46,,,12.464349160706305,86145.28999995673,86143.38500000304,83938.684,83941.30000000587,83955.397,86156.844,
Fixation Cross,canvas.Screen,3_5_0,2020-11-29T22:11:33.600Z,,,,,500.471000000005,timeout,9.png,73,64.2,71,69,73,55,53,,,8.44748483277715,86641.32499997504,86640.556,86140.176,86145.7250000094,86156.844,86657.315,
Stimulus Graph,canvas.Screen,3_5_1,2020-11-29T22:11:35.396Z,,,true,73,1779.3099999729893,response,9.png,73,64.2,71,69,73,55,53,73,click @btnC,8.44748483277715,88437.79499997618,88436.62499997299,86640.556,86641.65000000503,86657.315,88441.731,
Seq Graph,flow.Sequence,3_5,2020-11-29T22:11:35.396Z,,,,,2279.7809999729943,completion,9.png,73,64.2,71,69,73,55,53,,,8.44748483277715,88438.2049999549,88436.62499997299,86140.176,86145.63499996439,86156.844,88441.731,
Fixation Cross,canvas.Screen,3_6_0,2020-11-29T22:11:35.884Z,,,,,500.3619999999937,timeout,0.png,41,32.4,27,41,22,38,34,,,7.002856560004639,88926.06500000693,88925.49,88425.103,88438.43999999808,88441.731,88942.093,
Stimulus Graph,canvas.Screen,3_6_1,2020-11-29T22:11:37.490Z,,,true,41,1588.4620000048308,response,0.png,41,32.4,27,41,22,38,34,41,click @btnB,7.002856560004639,90531.64499998093,90530.55500000482,88925.49,88926.20499996701,88942.093,90543.188,
Seq Graph,flow.Sequence,3_6,2020-11-29T22:11:37.490Z,,,,,2088.8240000048245,completion,0.png,41,32.4,27,41,22,38,34,,,7.002856560004639,90532.21999999369,90530.55500000482,88425.103,88438.3899999666,88441.731,90543.188,
Fixation Cross,canvas.Screen,3_7_0,2020-11-29T22:11:37.986Z,,,,,500.3390000000072,timeout,6.png,76,63.6,72,76,65,46,59,,,10.556514576317317,91027.46499999193,91026.905,90526.572,90532.6800000039,90543.188,91043.527,
Stimulus Graph,canvas.Screen,3_7_1,2020-11-29T22:11:39.611Z,,,true,76,1607.95799998031,response,6.png,76,63.6,72,76,65,46,59,76,click @btnB,10.556514576317317,92652.8999999864,92651.48499998031,91026.905,91027.6849999791,91043.527,92661.321,
Seq Graph,flow.Sequence,3_7,2020-11-29T22:11:39.612Z,,,,,2108.296999980317,completion,6.png,76,63.6,72,76,65,46,59,,,10.556514576317317,92653.61499995925,92651.48499998031,90526.572,90532.59499999695,90543.188,92661.321,
Fixation Cross,canvas.Screen,3_8_0,2020-11-29T22:11:40.104Z,,,,,500.32300000000396,timeout,7.png,85,77.6,79,73,85,77,74,,,4.2708313008125245,93145.74000000721,93145.043,92644.614,92653.9599999669,92661.321,93161.644,
Stimulus Graph,canvas.Screen,3_8_1,2020-11-29T22:11:41.697Z,,,true,85,1575.8009999770147,response,7.png,85,77.6,79,73,85,77,74,85,click @btnC,4.2708313008125245,94738.5999999824,94737.44499997701,93145.043,93145.97499999218,93161.644,94746.074,
Seq Graph,flow.Sequence,3_8,2020-11-29T22:11:41.697Z,,,,,2076.1239999770187,completion,7.png,85,77.6,79,73,85,77,74,,,4.2708313008125245,94739.2749999999,94737.44499997701,92644.614,92653.90999999363,92661.321,94746.074,
Fixation Cross,canvas.Screen,3_9_0,2020-11-29T22:11:42.189Z,,,,,500.5020000000077,timeout,5.png,35,19.6,17,19,27,0,35,,,11.689311356961968,95230.51999998279,95229.811,94729.453,94739.73999998998,94746.074,95246.576,
Stimulus Graph,canvas.Screen,3_9_1,2020-11-29T22:11:43.708Z,,,true,35,1501.8089999844087,response,5.png,35,19.6,17,19,27,0,35,35,click @btnE,11.689311356961968,96749.45999996271,96748.38499998441,95229.811,95230.87999998825,95246.576,96764.262,
Seq Graph,flow.Sequence,3_9,2020-11-29T22:11:43.708Z,,,,,2002.3109999844164,completion,5.png,35,19.6,17,19,27,0,35,,,11.689311356961968,96749.86499996157,96748.38499998441,94729.453,94739.67999999877,94746.074,96764.262,
Loop Graph,flow.Loop,3,2020-11-29T22:11:43.708Z,,,,,20131.442999984414,completion,,,,,,,,,,,,96750.11999998242,96748.38499998441,76600.301,76613.71999996481,76616.942,96764.262,
Ending,html.Page,4,2020-11-29T22:11:51.941Z,,,,,8218.472999968668,form submission,,,,,,,,,,,,104982.97000001185,104982.73499996867,96747.506,96750.23999996483,96764.262,104986.479,
root,flow.Sequence,,2020-11-29T22:11:51.942Z,,,,,103083.89499996867,completion,,,,,,,,,,,,104984.14999997476,104982.73499996867,1848.82,1857.9399999580346,1898.84,104986.479,