sender,sender_type,sender_id,timestamp,meta,,correct,correctResponse,duration,ended_on,img,max,mean,num1,num2,num3,num4,num5,response,response_action,std,time_commit,time_end,time_render,time_run,time_show,time_switch,url
Opening,html.Page,0,2020-11-29T22:30:27.823Z,"{""labjs_version"":""20.1.1"",""labjs_build"":{""flavor"":""production"",""commit"":""c48ac4ada3769e8d34489594ab03097d5f256ac7""},""location"":""file:///C:/Users/lab/Desktop/study-export/index.html"",""userAgent"":""Mozilla/5.0 (Windows NT 10.0; Win64; x64) AppleWebKit/537.36 (KHTML, like Gecko) Chrome/85.0.4183.102 Safari/537.36"",""platform"":""Win32"",""language"":""ja-JP"",""locale"":""ja"",""timeZone"":""Asia/Tokyo"",""timezoneOffset"":-540,""screen_width"":1368,""screen_height"":912,""scroll_width"":1368,""scroll_height"":778,""window_innerWidth"":1368,""window_innerHeight"":802,""devicePixelRatio"":2}",,,,120505.63300000552,form submission,,,,,,,,,,,,122598.73500000685,122597.42000000551,2058.447,2048.3600000152364,2091.787,122650.424,{}
Fixation Cross,canvas.Screen,1_0_0,2020-11-29T22:30:28.360Z,,,,,500.28800000000047,timeout,1.png,104,92.2,95,84,104,82,96,,,8.158431221748456,123135.17000002321,123134.06,122583.685,122599.77000002982,122650.424,123150.712,
Stimulus Number,canvas.Screen,1_0_1,2020-11-29T22:30:29.549Z,,,true,104,1170.963000013784,response,1.png,104,92.2,95,84,104,82,96,104,click @btnC,8.158431221748456,124324.47500003036,124321.67500001378,123134.06,123135.72000002023,123150.712,124334.867,
Seq Number,flow.Sequence,1_0,2020-11-29T22:30:29.550Z,,,,,1671.2510000137845,completion,1.png,104,92.2,95,84,104,82,96,,,8.158431221748456,124325.06000000285,124321.67500001378,122583.685,122599.6350000496,122650.424,124334.867,
Fixation Cross,canvas.Screen,1_1_0,2020-11-29T22:30:30.044Z,,,,,500.3420000000042,timeout,7.png,85,77.6,79,73,85,77,74,,,4.2708313008125245,124819.76000004215,124818.576,124318.167,124325.37000003504,124334.867,124835.209,
Stimulus Number,canvas.Screen,1_1_1,2020-11-29T22:30:31.230Z,,,true,85,1167.4060000048776,response,7.png,85,77.6,79,73,85,77,74,85,click @btnC,4.2708313008125245,126005.05999999586,126002.61500000488,124818.576,124819.98500000918,124835.209,126019.369,
Seq Number,flow.Sequence,1_1,2020-11-29T22:30:31.230Z,,,,,1667.7480000048818,completion,7.png,85,77.6,79,73,85,77,74,,,4.2708313008125245,126005.5000000284,126002.61500000488,124318.167,124325.29500004603,124334.867,126019.369,
Fixation Cross,canvas.Screen,1_2_0,2020-11-29T22:30:31.728Z,,,,,500.3509999999951,timeout,8.png,25,10.0,13,6,25,4,2,,,8.366600265340756,126503.90500004869,126503.102,126002.738,126005.75500004925,126019.369,126519.72,
Stimulus Number,canvas.Screen,1_2_1,2020-11-29T22:30:32.623Z,,,true,25,876.7250000203203,response,8.png,25,10.0,13,6,25,4,2,25,click @btnC,8.366600265340756,127398.19000003627,127396.44500002032,126503.102,126504.16000001132,126519.72,127403.61,
Seq Number,flow.Sequence,1_2,2020-11-29T22:30:32.623Z,,,,,1377.0760000203154,completion,8.png,25,10.0,13,6,25,4,2,,,8.366600265340756,127398.65000004647,127396.44500002032,126002.738,126005.70999999763,126019.369,127403.61,
Fixation Cross,canvas.Screen,1_3_0,2020-11-29T22:30:33.112Z,,,,,500.35599999999977,timeout,5.png,35,19.6,17,19,27,0,35,,,11.689311356961968,127887.92000000831,127887.282,127387.028,127398.96500000032,127403.61,127903.966,
Stimulus Number,canvas.Screen,1_3_1,2020-11-29T22:30:34.024Z,,,true,35,892.1289999978762,response,5.png,35,19.6,17,19,27,0,35,35,click @btnE,11.689311356961968,128799.1200000397,128796.09499999788,127887.282,127888.2900000317,127903.966,128804.629,
Seq Number,flow.Sequence,1_3,2020-11-29T22:30:34.024Z,,,,,1392.484999997876,completion,5.png,35,19.6,17,19,27,0,35,,,11.689311356961968,128799.99000002863,128796.09499999788,127387.028,127398.90000002924,127403.61,128804.629,
Fixation Cross,canvas.Screen,1_4_0,2020-11-29T22:30:34.514Z,,,,,500.3859999999986,timeout,6.png,76,63.6,72,76,65,46,59,,,10.556514576317317,129289.21499999706,129288.345,128787.912,128800.4700000165,128804.629,129305.015,
Stimulus Number,canvas.Screen,1_4_1,2020-11-29T22:30:35.278Z,,,false,76,746.9950000430836,response,6.png,76,63.6,72,76,65,46,59,65,click @btnC,10.556514576317317,130053.7750000367,130052.01000004308,129288.345,129289.55500002485,129305.015,130055.452,
Seq Number,flow.Sequence,1_4,2020-11-29T22:30:35.278Z,,,,,1247.3810000430822,completion,6.png,76,63.6,72,76,65,46,59,,,10.556514576317317,130053.990000044,130052.01000004308,128787.912,128800.38000002969,128804.629,130055.452,
Fixation Cross,canvas.Screen,1_5_0,2020-11-29T22:30:35.765Z,,,,,500.41300000000047,timeout,9.png,73,64.2,71,69,73,55,53,,,8.44748483277715,130540.02000001492,130539.187,130038.829,130054.13000000408,130055.452,130555.865,
Stimulus Number,canvas.Screen,1_5_1,2020-11-29T22:30:37.127Z,,,false,73,1344.6850000202976,response,9.png,73,64.2,71,69,73,55,53,71,click @btnA,8.44748483277715,131902.08000002895,131900.5500000203,130539.187,130540.48500000499,130555.865,131906.736,
Seq Number,flow.Sequence,1_5,2020-11-29T22:30:37.127Z,,,,,1845.098000020298,completion,9.png,73,64.2,71,69,73,55,53,,,8.44748483277715,131902.27500000037,131900.5500000203,130038.829,130054.10500004655,130055.452,131906.736,
Fixation Cross,canvas.Screen,1_6_0,2020-11-29T22:30:37.616Z,,,,,500.3739999999816,timeout,2.png,93,86.0,93,90,79,92,76,,,7.0710678118654755,132391.3000000175,132390.477,131890.13,131902.41500001866,131906.736,132407.11,
Stimulus Number,canvas.Screen,1_6_1,2020-11-29T22:30:40.884Z,,,true,93,3250.325000001001,response,2.png,93,86.0,93,90,79,92,76,93,click @btnA,7.0710678118654755,135660.00500001246,135657.435000001,132390.477,132391.72000001417,132407.11,135682.216,
Seq Number,flow.Sequence,1_6,2020-11-29T22:30:40.885Z,,,,,3750.699000000983,completion,2.png,93,86.0,93,90,79,92,76,,,7.0710678118654755,135660.55000002962,135657.435000001,131890.13,131902.3800000432,131906.736,135682.216,
Fixation Cross,canvas.Screen,1_7_0,2020-11-29T22:30:41.385Z,,,,,494.17700000002515,timeout,0.png,41,32.4,27,41,22,38,34,,,7.002856560004639,136160.63500003656,136159.743,135642.626,135660.97500000615,135682.216,136176.393,
Stimulus Number,canvas.Screen,1_7_1,2020-11-29T22:30:42.695Z,,,false,41,1291.8320000187086,response,0.png,41,32.4,27,41,22,38,34,38,click @btnD,7.002856560004639,137470.66000004997,137468.22500001872,136159.743,136161.0300000175,136176.393,137477.227,
Seq Number,flow.Sequence,1_7,2020-11-29T22:30:42.695Z,,,,,1786.0090000187338,completion,0.png,41,32.4,27,41,22,38,34,,,7.002856560004639,137470.98500002176,137468.22500001872,135642.626,135660.87000002153,135682.216,137477.227,
Fixation Cross,canvas.Screen,1_8_0,2020-11-29T22:30:43.186Z,,,,,500.40499999999884,timeout,4.png,58,42.2,24,58,51,32,46,,,12.464349160706305,137961.7150000413,137960.972,137460.614,137471.2250000448,137477.227,137977.632,
Stimulus Number,canvas.Screen,1_8_1,2020-11-29T22:30:44.806Z,,,true,58,1600.7980000523094,response,4.png,58,42.2,24,58,51,32,46,58,click @btnB,12.464349160706305,139581.5350000048,139578.43000005232,137960.972,137962.04500005115,137977.632,139595.373,
Seq Number,flow.Sequence,1_8,2020-11-29T22:30:44.807Z,,,,,2101.203000052308,completion,4.png,58,42.2,24,58,51,32,46,,,12.464349160706305,139581.8900000304,139578.43000005232,137460.614,137471.16499999538,137477.227,139595.373,
Fixation Cross,canvas.Screen,1_9_0,2020-11-29T22:30:45.305Z,,,,,500.5219999999972,timeout,3.png,75,45.6,56,28,27,75,42,,,18.11739495622922,140079.85500001814,140079.105,139578.714,139582.12999999523,139595.373,140095.895,
Stimulus Number,canvas.Screen,1_9_1,2020-11-29T22:30:47.427Z,,,true,75,2102.030000044062,response,3.png,75,45.6,56,28,27,75,42,75,click @btnD,18.11739495622922,142201.72000001185,142197.92500004405,140079.105,140080.11999999871,140095.895,142230.585,
Seq Number,flow.Sequence,1_9,2020-11-29T22:30:47.427Z,,,,,2602.5520000440592,completion,3.png,75,45.6,56,28,27,75,42,,,18.11739495622922,142202.44000002276,142197.92500004405,139578.714,139582.08500000183,139595.373,142230.585,
Loop Number,flow.Loop,1,2020-11-29T22:30:47.428Z,,,,,19547.501000044052,completion,,,,,,,,,,,,142203.14500003587,142197.92500004405,122583.685,122599.54000002472,122650.424,142230.585,
Interval,html.Page,2,2020-11-29T22:31:01.100Z,,,,,13644.14500003957,form submission,,,,,,,,,,,,155875.3550000256,155874.73000003956,142197.202,142203.67499999702,142230.585,155873.255,
Fixation Cross,canvas.Screen,3_0_0,2020-11-29T22:31:01.582Z,,,,,500.3759999999893,timeout,9.png,73,64.2,71,69,73,55,53,,,8.44748483277715,156357.69000003347,156356.958,155856.463,155875.79499999993,155873.255,156373.631,
Stimulus Graph,canvas.Screen,3_0_1,2020-11-29T22:31:02.566Z,,,true,73,964.6540000052773,response,9.png,73,64.2,71,69,73,55,53,73,click @btnC,8.44748483277715,157340.8950000303,157338.28500000527,156356.958,156357.96000005212,156373.631,157362.749,
Seq Graph,flow.Sequence,3_0,2020-11-29T22:31:02.567Z,,,,,1465.0300000052666,completion,9.png,73,64.2,71,69,73,55,53,,,8.44748483277715,157341.87000000384,157338.28500000527,155856.463,155875.75000000652,155873.255,157362.749,
Fixation Cross,canvas.Screen,3_1_0,2020-11-29T22:31:03.067Z,,,,,495.18699999997625,timeout,2.png,93,86.0,93,90,79,92,76,,,7.0710678118654755,157842.0299999998,157841.323,157324.287,157342.34000003198,157362.749,157857.936,
Stimulus Graph,canvas.Screen,3_1_1,2020-11-29T22:31:04.087Z,,,false,93,1001.8340000391472,response,2.png,93,86.0,93,90,79,92,76,92,click @btnD,7.0710678118654755,158862.02000000048,158859.77000003913,157841.323,157842.29500003858,157857.936,158875.319,
Seq Graph,flow.Sequence,3_1,2020-11-29T22:31:04.087Z,,,,,1497.0210000391235,completion,2.png,93,86.0,93,90,79,92,76,,,7.0710678118654755,158862.41000000155,158859.77000003913,157324.287,157342.29500003858,157362.749,158875.319,
Fixation Cross,canvas.Screen,3_2_0,2020-11-29T22:31:04.584Z,,,,,500.3160000000207,timeout,6.png,76,63.6,72,76,65,46,59,,,10.556514576317317,159359.69500005012,159359.02,158858.621,158862.64500004472,158875.319,159375.635,
Stimulus Graph,canvas.Screen,3_2_1,2020-11-29T22:31:05.309Z,,,true,76,706.0850000164937,response,6.png,76,63.6,72,76,65,46,59,76,click @btnB,10.556514576317317,160084.10000003641,160081.7200000165,159359.02,159360.0500000175,159375.635,160092.847,
Seq Graph,flow.Sequence,3_2,2020-11-29T22:31:05.309Z,,,,,1206.4010000165144,completion,6.png,76,63.6,72,76,65,46,59,,,10.556514576317317,160084.4700000016,160081.7200000165,158858.621,158862.60000005132,158875.319,160092.847,
Fixation Cross,canvas.Screen,3_3_0,2020-11-29T22:31:05.802Z,,,,,500.3499999999767,timeout,8.png,25,10.0,13,6,25,4,2,,,8.366600265340756,160577.1550000063,160576.523,160076.178,160084.7950000316,160092.847,160593.197,
Stimulus Graph,canvas.Screen,3_3_1,2020-11-29T22:31:06.403Z,,,true,25,582.6380000018398,response,8.png,25,10.0,13,6,25,4,2,25,click @btnC,8.366600265340756,161178.26500005322,161175.83500000183,160576.523,160577.38500001142,160593.197,161193.577,
Seq Graph,flow.Sequence,3_3,2020-11-29T22:31:06.403Z,,,,,1082.9880000018165,completion,8.png,25,10.0,13,6,25,4,2,,,8.366600265340756,161178.65499999607,161175.83500000183,160076.178,160084.66000005137,160092.847,161193.577,
Fixation Cross,canvas.Screen,3_4_0,2020-11-29T22:31:06.903Z,,,,,500.33600000001024,timeout,3.png,75,45.6,56,28,27,75,42,,,18.11739495622922,161678.1750000082,161677.293,161176.948,161178.9100000169,161193.577,161693.913,
Stimulus Graph,canvas.Screen,3_4_1,2020-11-29T22:31:07.457Z,,,true,75,536.1070000172476,response,3.png,75,45.6,56,28,27,75,42,75,click @btnD,18.11739495622922,162231.7500000354,162230.02000001725,161677.293,161678.61500004074,161693.913,162244.28,
Seq Graph,flow.Sequence,3_4,2020-11-29T22:31:07.457Z,,,,,1036.4430000172579,completion,3.png,75,45.6,56,28,27,75,42,,,18.11739495622922,162232.07500000717,162230.02000001725,161176.948,161178.85500000557,161193.577,162244.28,
Fixation Cross,canvas.Screen,3_5_0,2020-11-29T22:31:07.953Z,,,,,500.39000000001397,timeout,1.png,104,92.2,95,84,104,82,96,,,8.158431221748456,162728.65000000456,162727.997,162227.72,162232.29000001447,162244.28,162744.67,
Stimulus Graph,canvas.Screen,3_5_1,2020-11-29T22:31:08.576Z,,,true,104,603.9799999998941,response,1.png,104,92.2,95,84,104,82,96,104,click @btnC,8.158431221748456,163351.5100000077,163348.6499999999,162727.997,162729.02000002796,162744.67,163361.733,
Seq Graph,flow.Sequence,3_5,2020-11-29T22:31:08.577Z,,,,,1104.369999999908,completion,1.png,104,92.2,95,84,104,82,96,,,8.158431221748456,163352.25500003435,163348.6499999999,162227.72,162232.24500002107,162244.28,163361.733,
Fixation Cross,canvas.Screen,3_6_0,2020-11-29T22:31:09.071Z,,,,,500.3839999999909,timeout,7.png,85,77.6,79,73,85,77,74,,,4.2708313008125245,163846.17500001332,163845.443,163345.112,163352.70000004675,163361.733,163862.117,
Stimulus Graph,canvas.Screen,3_6_1,2020-11-29T22:31:09.711Z,,,true,85,621.6930000051798,response,7.png,85,77.6,79,73,85,77,74,85,click @btnC,4.2708313008125245,164486.45500000566,164483.81000000518,163845.443,163846.41500003636,163862.117,164495.893,
Seq Graph,flow.Sequence,3_6,2020-11-29T22:31:09.712Z,,,,,1122.0770000051707,completion,7.png,85,77.6,79,73,85,77,74,,,4.2708313008125245,164487.13000002317,164483.81000000518,163345.112,163352.61000000173,163361.733,164495.893,
Fixation Cross,canvas.Screen,3_7_0,2020-11-29T22:31:10.205Z,,,,,500.2969999999914,timeout,4.png,58,42.2,24,58,51,32,46,,,12.464349160706305,164980.31500005163,164979.547,164479.185,164487.5699999975,164495.893,164996.19,
Stimulus Graph,canvas.Screen,3_7_1,2020-11-29T22:31:11.083Z,,,true,58,859.0850000380888,response,4.png,58,42.2,24,58,51,32,46,58,click @btnB,12.464349160706305,165858.05999999866,165855.2750000381,164979.547,164980.67000001902,164996.19,165864.254,
Seq Graph,flow.Sequence,3_7,2020-11-29T22:31:11.083Z,,,,,1359.3820000380802,completion,4.png,58,42.2,24,58,51,32,46,,,12.464349160706305,165858.5000000312,165855.2750000381,164479.185,164487.48500004876,164495.893,165864.254,
Fixation Cross,canvas.Screen,3_8_0,2020-11-29T22:31:11.573Z,,,,,500.35800000000745,timeout,0.png,41,32.4,27,41,22,38,34,,,7.002856560004639,166348.53499999736,166347.89,165846.807,165858.79500000738,165864.254,166364.612,
Stimulus Graph,canvas.Screen,3_8_1,2020-11-29T22:31:12.311Z,,,true,41,719.9530000264931,response,0.png,41,32.4,27,41,22,38,34,41,click @btnB,7.002856560004639,167086.175000004,167084.5650000265,166347.89,166348.89000002295,166364.612,167098.411,
Seq Graph,flow.Sequence,3_8,2020-11-29T22:31:12.311Z,,,,,1220.3110000265006,completion,0.png,41,32.4,27,41,22,38,34,,,7.002856560004639,167086.42500004498,167084.5650000265,165846.807,165858.7450000341,165864.254,167098.411,
Fixation Cross,canvas.Screen,3_9_0,2020-11-29T22:31:12.808Z,,,,,500.38200000001234,timeout,5.png,35,19.6,17,19,27,0,35,,,11.689311356961968,167582.85000000615,167582.145,167081.784,167086.575000023,167098.411,167598.793,
Stimulus Graph,canvas.Screen,3_9_1,2020-11-29T22:31:13.384Z,,,true,35,558.1020000218996,response,5.png,35,19.6,17,19,27,0,35,35,click @btnE,11.689311356961968,168159.09000003012,168156.8950000219,167582.145,167583.1950000138,167598.793,168165.824,
Seq Graph,flow.Sequence,3_9,2020-11-29T22:31:13.384Z,,,,,1058.484000021912,completion,5.png,35,19.6,17,19,27,0,35,,,11.689311356961968,168159.47500005132,168156.8950000219,167081.784,167086.54000004753,167098.411,168165.824,
Loop Graph,flow.Loop,3,2020-11-29T22:31:13.385Z,,,,,12283.6400000219,completion,,,,,,,,,,,,168159.75000004983,168156.8950000219,155856.463,155875.6900000153,155873.255,168165.824,
Ending,html.Page,4,2020-11-29T22:31:21.696Z,,,,,8304.89600004119,form submission,,,,,,,,,,,,176470.94000002835,176470.72000004118,168149.206,168159.88000005018,168165.824,176471.573,
root,flow.Sequence,,2020-11-29T22:31:21.697Z,,,,,174378.93300004117,completion,,,,,,,,,,,,176472.38500003004,176470.72000004118,2058.447,2048.105000052601,2091.787,176471.573,